loggingTime,loggingSample,locationTimestamp_since1970,locationLatitude,locationLongitude,locationAltitude,locationSpeed,locationSpeedAccuracy,locationCourse,locationCourseAccuracy,locationVerticalAccuracy,locationHorizontalAccuracy,locationFloor,locationHeadingTimestamp_since1970,locationHeadingX,locationHeadingY,locationHeadingZ,locationTrueHeading,locationMagneticHeading,locationHeadingAccuracy,accelerometerTimestamp_sinceReboot,accelerometerAccelerationX,accelerometerAccelerationY,accelerometerAccelerationZ,gyroTimestamp_sinceReboot,gyroRotationX,gyroRotationY,gyroRotationZ,magnetometerTimestamp_sinceReboot,magnetometerX,magnetometerY,magnetometerZ,motionTimestamp_sinceReboot,motionYaw,motionRoll,motionPitch,motionRotationRateX,motionRotationRateY,motionRotationRateZ,motionUserAccelerationX,motionUserAccelerationY,motionUserAccelerationZ,motionAttitudeReferenceFrame,motionQuaternionX,motionQuaternionY,motionQuaternionZ,motionQuaternionW,motionGravityX,motionGravityY,motionGravityZ,motionMagneticFieldX,motionMagneticFieldY,motionMagneticFieldZ,motionHeading,motionMagneticFieldCalibrationAccuracy,activityTimestamp_sinceReboot,activity,activityActivityConfidence,activityActivityStartDate,pedometerStartDate,pedometerNumberofSteps,pedometerAverageActivePace,pedometerCurrentPace,pedometerCurrentCadence,pedometerDistance,pedometerFloorAscended,pedometerFloorDescended,pedometerEndDate,altimeterTimestamp_sinceReboot,altimeterReset,altimeterRelativeAltitude,altimeterPressure,IP_Timestamp_since1970,IP_en0,IP_pdp_ip0,deviceID,deviceOrientationTimeStamp_since1970,deviceOrientation,batteryTimeStamp_since1970,batteryState,batteryLevel,label
1698744165.020756,1,1698744164.005021,62.44635158545936,5.926276784299563,-1.738278,0.2358205,0.476343,355.6852573193561,66.68661360092821,18.10687225522275,7.843163303341878,-9999,1698744165.003644,6.816368103027344,-35.02264404296875,-21.78179931640625,176.2070922851562,173.6087799072266,19.89813995361328,188298.698647875,0.0241851806640625,-0.9586334228515624,-0.173919677734375,188298.666359875,-0.0427128411829471,0.0454399175941944,-0.0036764938849955,188298.678323875,131.9084930419922,-663.1095581054688,-716.170166015625,188298.681262875,1.590785856012793,0.0535157034727889,1.419474381871866,0.0025468473322689,0.0225094705820083,0.0007400028407573,0.0015495875850319,0.0033888816833496,-0.0152415484189987,2,0.4414906397439079,0.4793966188210589,0.5537080299431942,0.5183361878105512,0.0080634066835045,-0.9885726571083068,-0.1505297869443893,6.881660461425781,-34.88238525390625,-21.7431640625,-1,0,0,0,0,0,0,0,0,0,0,0,0,0,0,188296.120626,0,-2.573624,100.5388,1698744165.020515,0,1684768783,0,0,1,1698744164.993591,1,0.89,0
1698744166.00326,31,1698744165.000995,62.4463560847222,5.926261884668519,-2.261532,0.465352,0.4223268,303.3281180244222,37.71980018473582,12.63127001374731,5.165187705130331,-9999,1698744165.997603,5.198020935058594,-37.3551025390625,-20.649169921875,174.8659515380859,172.2676391601562,19.88973808288574,188299.7045535,-0.3619384765625,-0.946685791015625,0.08966064453125,188299.6722655,0.2602635324001312,0.1423640698194504,-0.1534638553857803,188299.7031655,130.2811279296875,-665.5263061523438,-715.1217651367188,188299.6946195,1.72960128409484,-0.0847266162736985,1.447028485406894,-0.1988039761781693,0.071650207042694,0.3450645506381989,0.2351176142692566,-0.1221362948417664,-0.1559050679206848,2,0.4532834385285533,0.4827307956849009,0.551629826416798,0.507158528100522,-0.0104472497478127,-0.9923505187034608,-0.1230102032423019,4.810737609863281,-37.474365234375,-20.56134033203125,-1,0,0,0,0,0,0,0,0,0,0,0,0,0,0,188297.120845,0,-2.544556,100.5384,1698744165.020515,0,1684768783,0,0,1,1698744164.993591,1,0.89,0
1698744167.735422,61,1698744166.99962,62.44636171319207,5.926275808976754,-2.802981,0.465352,0.514824,58.92976165714344,41.7298608037265,11.59683437168099,4.603891724910495,-9999,1698744167.725316,4.480216979980469,-37.8568115234375,-17.08306884765625,174.7542724609375,172.1559600830078,19.90115547180176,188301.4394302917,-0.0447998046875,-0.97943115234375,-0.0168304443359375,188301.4145932917,-0.0313328877091407,0.0204259119927883,0.0112734269350767,188301.4215192917,129.4208984375,-666.23095703125,-711.7913208007812,188301.4232872917,1.949930636752113,-0.3032394851993253,1.516970376683921,0.042658794671297,-0.0410184636712074,0.0077646309509873,-0.0031752418726682,0.0238354206085205,0.0248432159423828,2,0.4723196162521816,0.50123884934577,0.5356031958612878,0.4886748910895264,-0.0160661116242408,-0.9985517263412476,-0.0513475909829139,4.467658996582031,-38.00567626953125,-17.29205322265625,-1,0,0,0,0,0,0,0,0,0,0,0,0,0,0,188298.121421,0,-2.362236,100.5363,1698744165.020515,0,1684768783,0,0,1,1698744164.993591,1,0.89,0
1698744169.523256,91,1698744168.999191,62.44636089751399,5.926256561463532,-2.260932,0.2590084,0.3763297,266.6478423220727,53.17652730096401,17.8855104806312,7.186745767755901,-9999,1698744169.513522,6.802085876464844,-36.55902099609375,-22.0567626953125,175.4364624023438,172.8381500244141,19.90527534484863,188303.22771225,0.0179595947265625,-1.008865356445312,-0.1589202880859375,188303.20287525,-0.0423890016973018,0.0474079959094524,0.0011885687708854,188303.23049125,131.6210174560547,-663.9087524414062,-716.197265625,188303.21156925,1.562968455665973,0.0989557275570343,1.443732169611072,-0.0247805099934339,0.0510662570595741,-0.0009722937829792,0.0056840684264898,-0.030461847782135,-0.025628924369812,2,0.4423517558423354,0.4911952180164982,0.5512068009005603,0.5091399660852678,0.0125196408480405,-0.9919382333755492,-0.1261043697595596,6.722633361816406,-36.78729248046875,-22.30535888671875,-1,0,0,0,0,0,0,0,0,0,0,0,0,0,0,188300.122577,0,-2.235405,100.5347,1698744165.020515,0,1684768783,0,0,1,1698744164.993591,1,0.89,0
1698744171.319057,121,1698744170.999518,62.44636361624922,5.926246167878613,-3.001218,0.3669974,0.3742142,342.6256956038478,29.05199189889657,11.46208695584586,4.489722971624851,-9999,1698744171.301721,6.388252258300781,-35.917236328125,-21.1263427734375,173.5492401123047,170.950927734375,19.92178535461426,188305.015984625,-0.0035400390625,-0.9983978271484376,-0.1782989501953125,188304.991147625,0.0527146086096763,0.0096606165170669,0.0312822870910167,188305.009009625,131.2662200927734,-664.0907592773438,-715.6831665039062,188304.999841625,1.720288662714583,-0.0416075488157603,1.454523587246308,0.0858033373951911,-0.0134836556389927,0.0206776857376098,0.0158424247056245,-0.0291979908943176,-0.073021724820137,2,0.4453690937452889,0.4936497884235579,0.5570328997583325,0.4976654163101465,-0.0048256204463541,-0.993247926235199,-0.1159125119447708,6.516624450683594,-36.03070068359375,-20.8267822265625,-1,0,0,0,0,0,0,0,0,0,0,0,0,0,0,188302.123729,0,-2.327888,100.5359,1698744165.020515,0,1684768783,0,0,1,1698744164.993591,1,0.89,0
1698744173.100191,151,1698744171.998523,62.44636454791592,5.926249706038493,-2.972995,0.3669974,0.3793826,330.6297059606599,30.71215259599375,17.98872570198155,6.516438047024602,-9999,1698744173.090415,4.191276550292969,-38.7491455078125,-14.24652099609375,172.5218200683594,169.9235076904297,19.9238224029541,188306.80426575,-0.0021514892578125,-0.980072021484375,0.01373291015625,188306.77942875,0.1408487260341644,0.0378211475908756,-0.0001965412811841,188306.78755975,129.2022399902344,-666.8272094726562,-708.5764770507812,188306.78812175,2.667819328992823,-0.9859499693854118,1.547417257492773,0.0343189388513565,0.002856632694602,0.0116918068379163,-0.0138441808521747,0.1219800114631653,0.0456696152687072,2,0.4735365071084923,0.5189496690087577,0.5349455850724801,0.469348241067124,-0.0194962993264198,-0.9997267127037048,-0.0129088349640369,4.191276550292969,-38.7491455078125,-14.24652099609375,-1,0,0,0,0,0,0,0,0,0,0,0,0,0,0,188304.12488,0,-2.605331,100.5392,1698744165.020515,0,1684768783,0,0,1,1698744164.993591,1,0.89,0
1698744174.888196,181,1698744173.998501,62.44635106311444,5.926264146422125,-2.550847,0.3255688,0.4466799,182.2876014906486,24.64922541970489,22.47474673274971,8.37121913525802,-9999,1698744174.878481,6.933601379394531,-35.305908203125,-22.10223388671875,172.9817047119141,170.3833923339844,19.92259407043457,188308.5925465,0.00457763671875,-1.033737182617188,-0.1628570556640625,188308.5677095,-0.1467835903167725,0.0031268175225704,-0.0398424863815307,188308.5664835,132.1862335205078,-664.2153930664062,-716.6873779296875,188308.5764035,1.665082013911576,0.0325407892210514,1.441839387644569,-0.0807443857192993,-0.0029326612129807,-0.0409268550574779,-0.005297957919538,-0.0372495055198669,-0.0315622091293335,2,0.4351315239563499,0.4963810165876179,0.5627736688952826,0.497546391151603,0.0041840383782982,-0.99169659614563,-0.128532886505127,7.123573303222656,-35.82183837890625,-22.1168212890625,-1,0,0,0,0,0,0,0,0,0,0,0,0,0,0,188305.125453,0,-2.565697,100.5387,1698744165.020515,0,1684768783,0,0,1,1698744164.993591,1,0.89,0
1698744176.681294,211,1698744175.998545,62.44636074679229,5.926272621733754,-1.909296,0.6762496,0.3079722,6.773924149823141,20.00000000000005,16.91357413207589,6.123501216280912,-9999,1698744176.666905,7.876029968261719,-34.82757568359375,-23.8665771484375,171.8765258789062,169.2782135009766,19.93851852416992,188310.380826,0.0450286865234375,-0.989349365234375,-0.249847412109375,188310.355989,0.0475693829357624,0.0132454978302121,0.0013464941876009,188310.382143,132.9210968017578,-663.191650390625,-718.7303466796875,188310.364682,1.65839690141282,0.0627113616922134,1.415749176751293,0.0250814240425825,0.0636316314339637,0.0037642088718712,0.0048788702115416,-0.026918888092041,-0.0841728895902633,2,0.4214231345729441,0.4953188860307317,0.5737227955146104,0.4978995507014414,0.0096779838204383,-0.9880042672157288,-0.1541234850883484,7.867057800292969,-34.614990234375,-23.65667724609375,-1,0,0,0,0,0,0,0,0,0,0,0,0,0,0,188307.126604,0,-2.30146,100.5355,1698744165.020515,0,1684768783,0,0,1,1698744164.993591,1,0.89,0
1698744178.465115,241,1698744177.998584,62.44635751706281,5.926277019004925,-1.804202,0.1170208,0.3079722,-1.0,-1.0,25.55685318583831,8.427583791770553,-9999,1698744178.455124,4.454963684082031,-38.67474365234375,-12.62652587890625,169.842041015625,167.2437286376953,19.94207954406738,188312.169104875,-0.0243377685546875,-0.9150238037109376,0.0487823486328125,188312.144267875,0.0148846739903092,0.0541428625583648,0.0548294261097908,188312.145181875,129.4078826904297,-666.9906616210938,-707.0562744140625,188312.152961875,-2.205843549877529,-2.355125207818245,1.534537931126583,0.0589900389313697,-0.0061713075265288,0.0331177003681659,0.0034929625689983,0.0159593820571899,0.0140942335128784,2,0.4734556985468485,0.5372562745829286,0.5353441977363385,0.4478863377233764,-0.0256640315055847,-0.9993427395820618,0.0256092064082622,4.468132019042969,-38.83447265625,-12.691650390625,-1,0,0,0,0,0,0,0,0,0,0,0,0,0,0,188309.127754,0,-2.491707,100.5378,1698744165.020515,0,1684768783,0,0,1,1698744164.993591,1,0.89,0
1698744180.249199,271,1698744179.998612,62.44634774504138,5.926277904925731,-2.449264,0.1157574,0.3079722,167.9542890011458,19.99999999999616,30.77408797263123,10.57693389693483,-9999,1698744180.223938,6.271385192871094,-36.16668701171875,-19.63140869140625,170.2429351806641,167.6446228027344,19.93990898132324,188313.9573829167,0.0131378173828125,-0.97991943359375,-0.1225128173828125,188313.9325459167,-0.1345860362052917,0.0481475554406642,-0.0164724495261907,188313.9315709167,130.9442901611328,-664.2096557617188,-713.7687377929688,188313.9412389167,1.793168838167388,-0.0563324941707236,1.488987670673546,-0.1542265266180038,0.0324849300086498,0.0219470560550689,0.0066152177751064,-0.029284656047821,-0.0338723734021186,2,0.4390253646627681,0.5161989169930127,0.5623773249886111,0.4738432435590963,-0.0046010818332433,-0.996655523777008,-0.0815908163785934,6.088142395019531,-36.04095458984375,-19.41656494140625,-1,0,0,0,0,0,0,0,0,0,0,0,0,0,0,188311.128909,0,-2.470573,100.5375,1698744165.020515,0,1684768783,0,0,1,1698744164.993591,1,0.89,0
1698744182.041111,301,1698744180.998623,62.44633995037855,5.926271724597743,-2.597703,0.6163487,0.4339502,201.1996383283316,21.62408366586486,25.75581996355504,8.785461355901568,-9999,1698744182.031712,7.972770690917969,-33.563232421875,-25.2291259765625,169.9963531494141,167.3980407714844,19.94715881347656,188315.74566175,0.04058837890625,-1.002288818359375,-0.260772705078125,188315.72082375,0.0628769695758819,0.0498080365359783,0.0189683642238378,188315.74046475,133.0314636230469,-661.8067626953125,-719.3043823242188,188315.72951675,1.688119199750217,0.0693300471749602,1.382202905605431,0.071451224386692,0.0383080653846263,0.0176847130060195,-0.0117515120655298,0.0012659430503845,-0.0467215180397033,2,0.403288639873375,0.4938060334096745,0.5901955673869438,0.4951597998278141,0.0129874581471085,-0.9822689294815063,-0.1870277523994446,8.154121398925781,-33.484130859375,-24.9898681640625,-1,0,0,0,0,0,0,0,0,0,0,0,0,0,0,188313.130061,0,-2.201057,100.5343,1698744165.020515,0,1684768783,0,0,1,1698744164.993591,1,0.89,0
1698744183.826104,331,1698744182.998645,62.44633536734458,5.926264269358259,-2.118982,0.1857289,0.6365748,-1.0,-1.0,28.22522952119536,9.26553405829454,-9999,1698744183.820128,5.658973693847656,-38.234619140625,-14.85955810546875,168.07470703125,165.4763946533203,19.916259765625,188317.53394,-0.00567626953125,-0.978240966796875,-0.0270233154296875,188317.509103,0.0777741596102714,0.0078571243211627,0.014346981421113,188317.519101,130.5331878662109,-666.3883666992188,-709.29833984375,188317.517796,2.057124460744633,-0.2900204269916915,1.52956365090133,0.0448381640017032,0.0317074097692966,0.013048930093646,0.0044659823179245,0.0178570747375488,0.0144672952592372,2,0.442860856619372,0.5330298681265125,0.5599188779216003,0.4541416071387165,-0.011790226213634,-0.9991500377655028,-0.0395068414509296,5.796806335449219,-38.39776611328125,-14.8565673828125,-1,0,0,0,0,0,0,0,0,0,0,0,0,0,0,188314.130635,0,-2.124428,100.5334,1698744165.020515,0,1684768783,0,0,1,1698744164.993591,1,0.89,0
1698744185.614621,361,1698744184.998659,62.44634134430495,5.926300611408768,-1.948527,1.176325,0.5492733,72.00523097671642,16.11936450673133,19.68925304673763,6.599579792542192,-9999,1698744185.609411,5.237220764160156,-36.11285400390625,-13.8609619140625,166.9619140625,164.3636016845703,19.91388130187988,188319.3222205417,-0.005218505859375,-0.9989013671875,-0.0480499267578125,188319.2973825417,-0.0390083864331245,0.012230833992362,-0.0073231603018939,188319.2979285417,130.1531524658203,-664.5325317382812,-708.8326416015625,188319.3060755417,2.18136802226052,-0.3989600355258605,1.529182302202859,-0.0589803978800773,0.0258912108838558,-0.032508622854948,-0.0095033813267946,0.0032692551612854,0.0021439790725708,2,0.4402288824805195,0.5357515231547815,0.5640260998280459,0.4483787785985436,-0.0161619316786527,-0.9991342425346376,-0.0383376739919185,5.299369812011719,-36.47796630859375,-14.4664306640625,-1,0,0,0,0,0,0,0,0,0,0,0,0,0,0,188316.131788,0,-2.333168,100.5359,1698744165.020515,0,1684768783,0,0,1,1698744164.993591,1,0.89,0
1698744187.402717,391,1698744186.99867,62.44633929443651,5.926295936610185,-4.339698,0.6385239,1.644983,350.8999315929679,112.2948739210492,3.585753734619785,4.578963549478102,-9999,1698744187.397813,6.983009338378906,-31.78704833984375,-21.13055419921875,166.8699340820312,164.2716217041016,19.91735649108887,188321.1104981667,0.0122222900390625,-0.9963531494140624,-0.226104736328125,188321.0856601667,0.0176975037902593,-0.0039297603070735,-0.0114153735339641,188321.1068321667,131.9004821777344,-660.0741577148438,-715.1243286132812,188321.0943531667,1.781173073191044,0.0228127746278504,1.383423630971379,-0.0057353870943188,0.0055138636380434,-0.013295903801918,0.0059131579473614,0.0026537775993347,-0.0386229157447814,2,0.3943282656616676,0.5013880492210927,0.6032871654624483,0.478706597917925,0.0042491713538765,-0.9824970364570618,-0.186230480670929,6.880119323730469,-31.54302978515625,-20.6142578125,-1,0,0,0,0,0,0,0,0,0,0,0,0,0,0,188318.132939,0,-2.512848,100.5381,1698744165.020515,0,1684768783,0,0,1,1698744164.993591,1,0.89,0
1698744189.193133,421,1698744187.998676,62.44633771170081,5.926295165855277,-4.737946,0.4002576,1.22741,-1.0,-1.0,3.580250922989108,4.583267432871933,-9999,1698744189.186124,6.335090637207031,-36.04833984375,-17.419921875,166.5185241699219,163.9202117919922,19.90807914733887,188322.898771125,-0.0355377197265625,-1.0030517578125,-0.04937744140625,188322.873934125,0.0865237042307853,0.0339995138347148,0.028533374890685,188322.885807125,131.2398223876953,-664.2705688476562,-712.0216064453125,188322.882627125,1.804960384000106,0.0013993290631375,1.487949108166878,0.0542813427746295,-0.0528467111289501,-0.0061163827776908,-0.0232023671269416,-0.0091063976287841,0.0233531519770622,2,0.4192442691685275,0.53184254777192,0.5777847074855371,0.4555687196586922,0.0001158022423624,-0.9965701103210448,-0.0827554911375045,6.396202087402344,-36.0394287109375,-17.0074462890625,-1,0,0,0,0,0,0,0,0,0,0,0,0,0,0,188320.13409,0,-2.523415,100.5382,1698744165.020515,0,1684768783,0,0,1,1698744164.993591,1,0.89,0
1698744190.979329,451,1698744189.99868,62.44633197979715,5.926296770732344,-5.160946,0.2449059,1.224075,-1.0,-1.0,3.555420457119026,4.602556073084648,-9999,1698744190.974493,5.965980529785156,-37.8536376953125,-15.2567138671875,165.0111541748047,162.412841796875,19.91132164001465,188324.687041,-0.0037078857421875,-0.996917724609375,-0.027435302734375,188324.662204,-0.0167797785252332,0.0372999683022499,-0.0039390814490616,188324.664619,130.9725494384766,-665.7481689453125,-709.6826782226562,188324.670896,2.129607276468171,-0.308224592186725,1.534071530797877,-0.0519709214568138,0.028211835771799,-0.0034170222934335,-0.007369877770543,0.0319947004318237,0.011000994592905,2,0.4290497495160019,0.5462805984471494,0.5706574162390392,0.4379999885675813,-0.0111390510573983,-0.999325692653656,-0.0349876396358013,5.937232971191406,-37.69293212890625,-15.31536865234375,-1,0,0,0,0,0,0,0,0,0,0,0,0,0,0,188321.134661,0,-2.695168,100.5402,1698744165.020515,0,1684768783,0,0,1,1698744164.993591,1,0.89,0
1698744192.767485,481,1698744191.998682,62.44633132065382,5.926285427468386,-4.183079,0.1447366,0.8896731,-1.0,-1.0,3.541599650304927,4.613199426618023,-9999,1698744192.762682,7.860816955566406,-34.976318359375,-22.84466552734375,164.6009216308594,162.0026092529297,19.91443824768066,188326.4753045,-0.004547119140625,-0.977020263671875,-0.18572998046875,188326.4504675,-0.0772439241409301,0.0131024857982993,0.0032495891209691,188326.4737315,132.7066497802734,-662.8230590820312,-717.010986328125,188326.4591605,1.818348533252633,0.0250116763472614,1.403624125583335,-0.0793051272630691,-0.0166945196688175,0.0071667591109871,0.0145153496414423,-0.0287571549415588,-0.0242849588394165,2,0.3890905674080166,0.5152058236113434,0.6074492201209188,0.4627926220607118,0.004161384422332,-0.9860592484474182,-0.1663429737091064,7.691780090332031,-34.82672119140625,-22.60699462890625,-1,0,0,0,0,0,0,0,0,0,0,0,0,0,0,188323.13582,0,-2.800858,100.5415,1698744165.020515,0,1684768783,0,0,1,1698744164.993591,1,0.89,0
1698744194.561096,511,1698744193.998681,62.44634149338538,5.926299918856592,-3.977996,0.3100269,1.29553,-1.0,-1.0,3.531077238006775,4.621258548492963,-9999,1698744194.550933,6.567176818847656,-34.95428466796875,-18.35614013671875,163.5151519775391,160.9168395996094,19.92047309875488,188328.2635635417,0.041168212890625,-0.9823150634765624,-0.17138671875,188328.2387265417,0.0775347352027893,0.0208280496299266,0.0015414375811815,188328.2527335417,131.5645294189453,-663.0640869140625,-712.7860107421875,188328.2474195417,1.86470900750284,-0.0075457354599773,1.44768100507362,0.0932661369442939,0.0492933243513107,0.058240607380867,0.0032306890934705,-0.0042274594306945,-0.0273451060056686,2,0.3969419772796916,0.5301287008796544,0.600187719878827,0.4485257602348272,-0.0009266433771699,-0.992430865764618,-0.1228012517094612,6.395484924316406,-35.22802734375,-18.37567138671875,-1,0,0,0,0,0,0,0,0,0,0,0,0,0,0,188325.136973,0,-2.798218,100.5414,1698744165.020515,0,1684768783,0,0,1,1698744164.993591,1,0.89,0
1698744196.344067,541,1698744195.998677,62.4463419404269,5.926308100135014,-4.218581,0.195676,1.283329,-1.0,-1.0,3.522167672602888,4.628052713491927,-9999,1698744196.339313,5.741676330566406,-38.1514892578125,-14.50799560546875,162.2471466064453,159.6488342285156,19.91906356811523,188330.0518207917,-0.05523681640625,-0.94415283203125,0.0301513671875,188330.0269837917,-0.0244877655059099,-0.0063255401328206,0.0289104767143726,188330.0317147917,130.4012908935547,-666.3233642578125,-708.554443359375,188330.0356767917,2.454427281906273,-0.5918513474826186,1.538107280466381,-0.0476993769407272,-0.0207191444933414,0.0034625749103724,0.0099374428391456,0.018294870853424,0.0282293520867824,2,0.4213951433583237,0.5557525012282941,0.5788455302745705,0.4224966326294916,-0.0182382706552743,-0.9994657635688782,-0.0271305814385414,5.554725646972656,-38.0203857421875,-14.279052734375,-1,0,0,0,0,0,0,0,0,0,0,0,0,0,0,188327.138134,0,-2.724236,100.5406,1698744165.020515,0,1684768783,0,0,1,1698744164.993591,1,0.89,0
1698744198.132577,571,1698744196.998676,62.44633644346131,5.926303341153851,-3.838802,0.1777331,1.220097,-1.0,-1.0,3.520889266807903,4.629025362175686,-9999,1698744198.127437,8.622932434082031,-37.5352783203125,-21.7125244140625,161.8096466064453,159.2113342285156,19.9268798828125,188331.840065375,0.016998291015625,-1.0389404296875,-0.191650390625,188331.815228375,-0.0521662645041942,0.0410704724490642,0.0003592604189179,188331.824290375,133.6417083740234,-665.7371826171875,-716.1781005859375,188331.823921375,1.855327101734612,0.0378550828641702,1.431572918845846,-0.069237433373928,0.030854258686304,-0.0064488812349736,0.0015227738767862,-0.0448781847953796,-0.0462908893823623,2,0.3820345547785807,0.5335837089994425,0.6111687743309151,0.4425053422324398,0.0052521023899316,-0.990324079990387,-0.1386760473251343,8.658058166503906,-37.56817626953125,-21.754150390625,-1,0,0,0,0,0,0,0,0,0,0,0,0,0,0,188329.139281,0,-2.708382,100.5404,1698744165.020515,0,1684768783,0,0,1,1698744164.993591,1,0.89,0
1698744199.920972,601,1698744198.998669,62.44633994003271,5.926294814968044,-3.81873,0.5952919,1.140748,-1.0,-1.0,3.512527645785369,4.635373401397382,-9999,1698744199.915938,8.665382385253906,-36.30694580078125,-19.790771484375,160.8885803222656,158.2902679443359,19.93076705932617,188333.628307375,0.00274658203125,-0.957305908203125,-0.14947509765625,188333.603470375,0.0968157574534416,0.0031041805632412,0.0054789213463664,188333.616050375,133.6967926025391,-664.6473999023438,-714.3710327148438,188333.612163375,1.884260882561102,0.0227525898221031,1.430689402460065,0.0388676151633262,0.02161237411201,0.0008609518408775,0.00126314884983,0.0220306515693664,-0.0164828449487686,2,0.3787290680234747,0.5354970012831501,0.6148946421411265,0.4378494074735503,0.0031771399080753,-0.9902010560035706,-0.1396145075559616,8.408042907714844,-36.0009765625,-19.43231201171875,-1,0,0,0,0,0,0,0,0,0,0,0,0,0,0,188330.139851,0,-2.697807,100.5403,1698744165.020515,0,1684768783,0,0,1,1698744164.993591,1,0.89,0
1698744201.709042,631,1698744200.998661,62.44634269997033,5.926305046058156,-1.190392,0.7148775,0.7315416,-1.0,-1.0,3.542111340880453,4.612806551503641,-9999,1698744201.703986,6.549751281738281,-38.25592041015625,-13.580322265625,158.9744415283203,156.3761291503906,19.93225860595703,188335.416541125,-0.0089111328125,-0.984710693359375,-0.0126190185546875,188335.391705125,0.0096169412136077,0.0244576726108789,0.010333864018321,188335.394681125,131.2696075439453,-666.4620971679688,-707.711181640625,188335.400397125,2.445270154634384,-0.5216898208471737,1.542633759269887,-0.0201835315674543,0.0325112305581569,-0.0010350779630243,-0.0117523483932018,0.0180969834327697,0.0143615007400512,2,0.4035939170931679,0.5700030649924646,0.5898436503669566,0.405330791790165,-0.0140350311994552,-0.9996034502983092,-0.0244169123470783,6.409523010253906,-38.38665771484375,-13.414794921875,-1,0,0,0,0,0,0,0,0,0,0,0,0,0,0,188332.141015,0,-2.576263,100.5388,1698744165.020515,0,1684768783,0,0,1,1698744164.993591,1,0.89,0
1698744203.497374,661,1698744202.99865,62.44634022387105,5.926309019971545,-2.520155,0.3315561,0.7130433,-1.0,-1.0,3.53910213743204,4.615115718333919,-9999,1698744203.492269,7.804420471191406,-37.14105224609375,-19.158203125,158.2128295898438,155.6145172119141,19.93153381347656,188337.204765875,-0.0005340576171875,-0.9794464111328124,-0.1481475830078125,188337.179929875,-0.110173374414444,0.0335560962557792,0.0060847904533147,188337.203555875,132.5788269042969,-665.28076171875,-713.8995971679688,188337.188622875,2.009310698360347,-0.0656015333909472,1.45042918562746,-0.0801832526922226,0.0087816044688224,-0.0057334727607667,-0.0033283159136772,-0.0222349166870117,-0.0240553021430969,2,0.3762999980377547,0.546340972385173,0.6195890697495431,0.4195466776744535,-0.0078716520220041,-0.9927645921707152,-0.1198197081685066,7.877281188964844,-37.24072265625,-19.19573974609375,-1,0,0,0,0,0,0,0,0,0,0,0,0,0,0,188334.142161,0,-2.187843,100.5342,1698744165.020515,0,1684768783,0,0,1,1698744164.993591,1,0.89,0
1698744205.285481,691,1698744204.998639,62.44634308592212,5.92630662460808,-2.061411,0.2144109,1.044321,-1.0,-1.0,3.539289922885732,4.614971708965109,-9999,1698744205.280457,8.990486145019531,-36.052490234375,-20.5626220703125,157.7956085205078,155.1972961425781,19.93568992614746,188338.992982875,0.0113983154296875,-0.976318359375,-0.1852264404296875,188338.968146875,0.0030682277865707,-0.0041798311285674,0.0291395094245672,188338.982337875,133.8390045166016,-664.3814086914062,-715.1102905273438,188338.976838875,1.927824989135258,0.0355946260737385,1.413715035903341,0.0203893929719924,0.0183016583323478,0.007016051094979,0.0193962212651968,-0.0326061248779296,-0.033268317580223,2,0.3592120880969434,0.5411081625580656,0.6311127471781334,0.424105386905811,0.0055671175941824,-0.9876880645751952,-0.1563372611999512,9.192878723144531,-35.7755126953125,-20.28594970703125,-1,0,0,0,0,0,0,0,0,0,0,0,0,0,0,188336.143301,0,-2.119141,100.5333,1698744165.020515,0,1684768783,0,0,1,1698744204.10396,1,0.88,0
1698744207.080126,721,1698744205.998632,62.44634248501834,5.926309074168244,-2.682102,0.1857001,1.037956,-1.0,-1.0,3.539655018175673,4.614691689061428,-9999,1698744207.068605,6.947303771972656,-38.54266357421875,-13.89208984375,156.2651977539062,153.6668853759766,19.92282295227051,188340.781187375,-0.0114898681640625,-0.999969482421875,-0.0465545654296875,188340.756351375,0.0592635907232761,0.0335678122937679,-0.0109575763344764,188340.761260375,131.9392700195312,-666.9055786132812,-708.058349609375,188340.765044375,2.170958761005079,-0.1959962105991071,1.51896142939495,0.0640603899955749,0.006994966417551,0.0143780466169118,0.0053914841264486,0.0195305943489074,-0.0007945969700813,2,0.3824183374423709,0.5730124961283177,0.6069506782803811,0.396262674182039,-0.0100912107154727,-0.9986568689346312,-0.0508257895708084,6.949302673339844,-38.66815185546875,-13.78961181640625,-1,0,0,0,0,0,0,0,0,0,0,0,0,0,0,188338.14446,0,-2.148209,100.5337,1698744165.020515,0,1684768783,0,0,1,1698744204.10396,1,0.88,0
1698744208.861807,751,1698744207.998619,62.44634664360012,5.926312344120325,-1.487502,0.05525753,1.034338,-1.0,-1.0,3.53165367020067,4.62081804300353,-9999,1698744208.856786,8.028938293457031,-38.01019287109375,-16.4163818359375,155.578125,152.9798126220703,19.93048286437988,188342.569382125,-0.0054473876953125,-0.960968017578125,-0.061492919921875,188342.544546125,-0.1139481365680695,0.0207255184650421,-0.0091889705508947,188342.540172125,132.8100738525391,-666.4548950195312,-710.3134765625,188342.553239125,2.060481573660221,-0.0685543058669288,1.493345424367641,-0.1092444658279419,0.0115709798410534,-0.0133166499435901,0.0047661759890615,0.0041279196739196,0.0130762532353401,2,0.3708864560545475,0.569075093784437,0.6169602523036346,0.3974380112612926,-0.0053002559579908,-0.9970021843910216,-0.0771935507655143,7.929237365722656,-37.9505615234375,-16.03094482421875,-1,0,0,0,0,0,0,0,0,0,0,0,0,0,0,188339.145037,0,-2.148209,100.5337,1698744165.020515,0,1684768783,0,0,1,1698744204.10396,1,0.88,0
1698744210.650004,781,1698744209.998605,62.4463459967651,5.926317862740925,-0.9929397,0.1625613,1.030871,-1.0,-1.0,3.519973605952636,4.629721681287724,-9999,1698744210.644986,9.813240051269531,-34.95751953125,-22.6475830078125,154.6925506591797,152.09423828125,19.93669891357422,188344.357568625,0.00457763671875,-1.029220581054688,-0.2169952392578125,188344.332732625,0.0400613993406295,0.0109021821990609,0.0038565236609429,188344.349107625,134.6724090576172,-663.0582275390625,-717.1229248046875,188344.341424625,1.996509450081414,0.0189430335378951,1.388724286056115,0.0047036642208695,-0.0023499559611082,0.0040003112517297,0.0095096547156572,-0.0097240805625915,-0.0479220151901245,2,0.3405430186519361,0.5417678938332267,0.6491675127854506,0.4112173453238362,0.0034297814127057,-0.983470618724823,-0.1810360103845596,9.988883972167969,-35.254150390625,-22.55267333984375,-1,0,0,0,0,0,0,0,0,0,0,0,0,0,0,188341.146185,0,-1.947395,100.5313,1698744165.020515,0,1684768783,0,0,1,1698744204.10396,1,0.88,0
1698744212.440569,811,1698744211.99859,62.44634901329745,5.926313788161724,-2.180589,0.2995346,1.01373,-1.0,-1.0,3.514705392197013,4.633722373950567,-9999,1698744212.433043,7.992637634277344,-37.88189697265625,-15.9345703125,153.2537231445312,150.6554107666016,19.94119262695312,188346.1457445417,-0.017242431640625,-0.96649169921875,-0.0755157470703125,188346.1209085417,0.0316737741231918,-0.0213617477566003,0.0088283792138099,188346.1279445417,132.9386138916016,-666.295654296875,-710.5430908203125,188346.1296005417,2.159505967593885,-0.1330500344701242,1.486713550983553,0.105417899787426,0.0132861332967877,-0.0058391126804053,0.0174279417842626,0.021872878074646,-0.0098504424095153,2,0.3615762606374418,0.572399298492715,0.6265626750556622,0.3860583293671807,-0.011141343973577,-0.996467113494873,-0.0832433030009269,7.982200622558594,-37.977294921875,-15.9752197265625,-1,0,0,0,0,0,0,0,0,0,0,0,0,0,0,188343.147334,0,-2.066299,100.5327,1698744165.020515,0,1684768783,0,0,1,1698744204.10396,1,0.88,0
1698744214.226228,841,1698744213.998573,62.44634728478477,5.926315892336234,-2.430058,0.1122982,0.9941307,-1.0,-1.0,3.514161284105727,4.634135032784568,-9999,1698744214.221214,7.380638122558594,-38.6060791015625,-13.6905517578125,152.2765808105469,149.6782684326172,19.9437141418457,188347.933912125,-0.002716064453125,-0.9904022216796876,-0.029571533203125,188347.909076125,-0.0742281600832939,0.035302598029375,-0.0124169886112213,188347.906753125,132.4380493164062,-666.6544189453125,-707.9381103515625,188347.917768125,2.311925094644924,-0.2664759241977467,1.535770442889999,-0.065080925822258,0.0182665288448333,-0.0102684739977121,-0.0047079194337129,-0.000644028186798,0.005423367023468,2,0.3649353249157325,0.5915467481654194,0.6153418430480773,0.3718189297915149,-0.0092233931645751,-0.9993866682052612,-0.0337893068790435,7.651405334472656,-38.4908447265625,-13.1549072265625,-1,0,0,0,0,0,0,0,0,0,0,0,0,0,0,188345.148495,0,-2.338455,100.5359,1698744165.020515,0,1684768783,0,0,1,1698744204.10396,1,0.88,0
1698744216.014671,871,1698744214.998565,62.44635035754855,5.926315092241582,-2.48116,0.1141986,1.010096,-1.0,-1.0,3.504521850567377,4.64142905059257,-9999,1698744216.009402,10.06258392333984,-36.0701904296875,-20.59521484375,151.3744201660156,148.7761077880859,19.94952011108398,188349.7220686667,0.0137481689453125,-1.012863159179688,-0.1982421875,188349.6972336667,-0.0232619121670723,0.0260923206806182,0.0139019675552845,188349.7156556667,135.0422668457031,-664.230224609375,-714.9841918945312,188349.7059256667,2.031280538038493,0.0456722830096341,1.416211795600953,-0.0373036153614521,0.0094092041254043,-0.0017129830084741,0.0033462112769484,-0.0258100628852844,-0.039014995098114,2,0.3279790559717577,0.5617158101347006,0.653177396832868,0.3876397589089509,0.0070297503843903,-0.9880756139755248,-0.1538101732730865,9.935279846191406,-36.217529296875,-20.71759033203125,-1,0,0,0,0,0,0,0,0,0,0,0,0,0,0,188347.149636,0,-2.4785,100.5376,1698744165.020515,0,1684768783,0,0,1,1698744204.10396,1,0.88,0
1698744217.802708,901,1698744216.998548,62.44635829068837,5.926319480393232,-1.854115,0.2981999,0.9950436,-1.0,-1.0,3.499192895361575,4.645447891628957,-9999,1698744217.797526,8.493324279785156,-37.5028076171875,-17.47796630859375,149.6692352294922,147.0709228515625,19.94507598876953,188351.51021925,0.0048065185546875,-0.9882965087890624,-0.134979248046875,188351.48538425,0.0999263301491737,-0.0110135022550821,0.0083287702873349,188351.49446225,133.1467437744141,-665.4312744140625,-711.0782470703125,188351.49407625,2.166291291442272,-0.0747190206614542,1.456790749473166,0.0983698442578315,0.0249448735266923,0.0105145499110221,0.015251649543643,0.0395594239234924,-0.0231401175260543,2,0.3363084359266654,0.5746094627569689,0.6471485806502376,0.3713748699780133,-0.0084920246154069,-0.9935083985328674,-0.1134411990642548,8.269050598144531,-37.2880859375,-16.6744384765625,-1,0,0,0,0,0,0,0,0,0,0,0,0,0,0,188348.150212,0,-2.4785,100.5376,1698744165.020515,0,1684768783,0,0,1,1698744204.10396,1,0.88,0
1698744219.590728,931,1698744218.99853,62.44636069972884,5.926327928412955,1.357388,1.264184,0.7499638,-1.0,-1.0,3.49085549447908,4.651716344474806,-9999,1698744219.585714,7.775398254394531,-38.72857666015625,-13.34527587890625,148.6861114501953,146.0877990722656,19.95482635498047,188353.298363875,-0.00439453125,-0.9901885986328124,-0.0123443603515625,188353.273528875,-0.003165166825056,0.0149248875677585,-0.0149459261447191,188353.273118875,132.7436065673828,-666.832275390625,-707.4169921875,188353.282220875,2.364133327402382,-0.2581918971163115,1.525710077256528,-0.0180861689150333,0.024381335824728,-0.0215518735349178,-0.017299922183156,0.0435698628425598,0.0458224453032016,2,0.3458313878473844,0.5988413844365181,0.6296527255737321,0.3540158239296832,-0.0115086995065212,-0.9989838004112244,-0.0435792952775955,7.790092468261719,-38.6588134765625,-13.081787109375,-1,0,0,0,0,0,0,0,0,0,0,0,0,0,0,188350.15136,0,-2.277679,100.5352,1698744165.020515,0,1684768783,0,0,1,1698744204.10396,1,0.88,0
1698744221.378948,961,1698744220.998512,62.44636184218037,5.926319046892493,-1.261392,0.6307545,0.7421939,-1.0,-1.0,3.488259806141818,4.653663133236471,-9999,1698744221.373838,10.19780731201172,-36.0948486328125,-20.7701416015625,147.9581909179688,145.3598785400391,19.958740234375,188355.086492875,0.004180908203125,-1.002960205078125,-0.217132568359375,188355.061657875,-0.0980890169739723,0.013791712000966,-0.0004186489095445,188355.082010875,134.9430541992188,-664.4985961914062,-715.2923583984375,188355.070349875,2.093855414147391,0.042385192867474,1.405624961914085,-0.068509392440319,-0.0040020449087023,0.0143415927886962,0.0007386649958789,-0.0457144379615783,-0.0436720252037048,2,0.309260801232559,0.5676446216096128,0.6674016684760301,0.3697465985714162,0.0069669866934418,-0.9863901734352112,-0.1642746776342392,9.912086486816406,-36.04931640625,-20.73541259765625,-1,0,0,0,0,0,0,0,0,0,0,0,0,0,0,188352.152511,0,-1.749214,100.5289,1698744165.020515,0,1684768783,0,0,1,1698744204.10396,1,0.88,0
1698744223.166972,991,1698744221.998505,62.4463644248317,5.926315852388704,-2.185953,0.6901913,0.7363651,-1.0,-1.0,3.487202412665708,4.654455539146045,-9999,1698744223.161812,9.151390075683594,-36.78802490234375,-17.13214111328125,146.8804168701172,144.2821044921875,19.9617977142334,188356.8746189167,0.0064697265625,-1.02764892578125,-0.156982421875,188356.8497839167,0.1528763622045517,0.0365782491862773,0.0216506998986005,188356.8608519167,134.0542602539062,-664.923583984375,-711.3997802734375,188356.8584759167,2.161179553021078,-0.0140053453298271,1.44834907825478,0.1097606718540192,0.0223579742014408,-0.0031817909330129,-0.0065749720670282,0.0019425153732299,-0.0343638062477111,2,0.3165385532764095,0.5820122220864024,0.6586352678620289,0.3567419256229781,-0.0017105879960581,-0.9925127029418944,-0.1221302375197411,9.217170715332031,-36.99700927734375,-17.55938720703125,-1,0,0,0,0,0,0,0,0,0,0,0,0,0,0,188354.153662,0,-1.722794,100.5286,1698744165.020515,0,1684768783,0,0,1,1698744204.10396,1,0.88,0
1698744224.959761,1021,1698744223.998484,62.44636833030454,5.926313142462996,-0.4982828,0.1811842,1.147366,308.5925908216948,180.0,3.483678057987482,4.657093967388398,-9999,1698744224.950044,7.611686706542969,-39.21337890625,-11.22418212890625,145.6426239013672,143.0443115234375,19.94293594360352,188358.6627349167,-0.0271759033203125,-0.962158203125,0.0165863037109375,188358.6378999167,0.003696467494592,-0.0035856801550835,0.0373223386704921,188358.6396229167,132.4135284423828,-667.6285400390625,-705.870361328125,188358.6465919167,3.103920957810229,-0.946193274225512,1.555420282912802,-0.0142303211614489,0.0234197825193405,0.0166631322354078,0.0110071757808327,0.019031286239624,0.0065300455316901,2,0.3363617456704743,0.6183525213300697,0.6281340642899658,0.3315853081740756,-0.0124873183667659,-0.9998818039894104,-0.0090018706396222,7.593238830566406,-39.33966064453125,-11.322265625,-1,0,0,0,0,0,0,0,0,0,0,0,0,0,0,188355.154239,0,-2.021378,100.5322,1698744165.020515,0,1684768783,0,0,1,1698744204.10396,1,0.88,0
1698744226.74314,1051,1698744225.998465,62.44637134911666,5.92633442082123,1.329318,0.1933562,0.7189166,-1.0,-1.0,3.482437367250485,4.658021792130898,-9999,1698744226.738052,9.437339782714844,-36.95257568359375,-18.93182373046875,144.6427459716797,142.04443359375,19.95892715454102,188360.450844,-0.0010986328125,-0.9629364013671876,-0.1217041015625,188360.426009,-0.1351668685674667,0.0680506899952888,-0.0304769482463598,188360.448169,134.4289855957031,-665.0733642578125,-713.389404296875,188360.434701,2.202415515975308,-0.0167089192260053,1.432111320897997,-0.1173533499240875,0.0368137471377849,-0.0172646883875131,-0.0135746654123067,0.0333518981933593,0.0326931923627853,2,0.3026502435653345,0.5824872441218036,0.6702355088746152,0.3462600376004125,-0.0023097698576748,-0.990398645401001,-0.1382228881120682,9.633140563964844,-37.1962890625,-18.939697265625,-1,0,0,0,0,0,0,0,0,0,0,0,0,0,0,188357.15538,0,-1.920967,100.531,1698744165.020515,0,1684768783,0,0,1,1698744204.10396,1,0.88,0
1698744228.531236,1081,1698744227.998446,62.44637421092082,5.926321382972046,-1.181248,1.437529,0.7164605,-1.0,-1.0,3.478500846339331,4.660962228425092,-9999,1698744228.526213,11.02088165283203,-34.87677001953125,-22.2435302734375,143.72900390625,141.1306915283203,19.96835327148438,188362.2389464167,0.0193023681640625,-1.041366577148438,-0.2901458740234375,188362.2141114167,0.0802607536315918,0.0239902883768081,0.0178189445286989,188362.2266974167,136.0256958007812,-663.1405029296875,-716.5716552734375,188362.2228034167,2.179227649836931,0.0301178943942715,1.36713134032569,0.0834564492106437,0.0087583791464567,0.0161270219832658,0.0157903134822845,-0.0513385534286499,-0.0817203819751739,2,0.2819217836386083,0.5651862139104727,0.6916100885981584,0.3503718289816922,0.0060907555744051,-0.9793318510055542,-0.2021692991256714,10.83042144775391,-34.76361083984375,-22.51873779296875,-1,0,0,0,0,0,0,0,0,0,0,0,0,0,0,188359.156529,0,-1.42157,100.525,1698744165.020515,0,1684768783,0,0,1,1698744204.10396,1,0.88,0
1698744230.31928,1111,1698744229.998426,62.44637552841401,5.926326555044849,-0.9170638,0.1099314,1.154449,294.8713876051318,180.0,3.466867545232806,4.669621660970007,-9999,1698744230.314316,7.848518371582031,-38.955810546875,-10.00506591796875,142.7933959960938,140.1950836181641,19.9655590057373,188364.0270407917,0.006317138671875,-0.9384613037109376,0.0204925537109375,188364.0022067917,0.0507606491446495,0.0224363338202238,0.0065399245359003,188364.0052577917,132.7288360595703,-667.3154907226562,-704.512451171875,188364.0108987917,-2.580431824676859,-1.495635015295845,1.557825001099611,0.0746814012527465,0.0150224082171917,0.0082774274051189,-0.0070968614891171,0.0245739221572876,0.0259389281272888,2,0.3224136266853868,0.6289369953332835,0.6336784813105658,0.3145465586147411,-0.0129532199352979,-0.999915897846222,-0.0009754184284247,7.797340393066406,-39.012939453125,-10.02984619140625,-1,0,0,0,0,0,0,0,0,0,0,0,0,0,0,188361.157679,0,-1.765068,100.5291,1698744165.020515,0,1684768783,0,0,1,1698744204.10396,1,0.88,0
1698744232.107149,1141,1698744230.998416,62.44637620180352,5.926332261771591,1.463421,0.7571529,0.8003533,-1.0,-1.0,3.469373063154205,4.667760446022143,-9999,1698744232.102318,8.304298400878906,-38.6446533203125,-13.17572021484375,141.7756500244141,139.1773376464844,19.97188568115234,188365.815128375,-0.013275146484375,-1.00384521484375,-0.062835693359375,188365.790293375,-0.1374457478523254,0.0412552952766418,-0.0340498462319374,188365.814143375,133.5010986328125,-666.6943359375,-708.4402465820312,188365.798985375,2.474791350858993,-0.2492298688645337,1.520485157106048,-0.1306321918964386,0.0383324921131134,-0.0379858203232288,-0.007095418870449,0.0277720093727111,0.0091280937194824,2,0.3088755052343977,0.6166247001274547,0.6514265682821203,0.3162491555417907,-0.012405339628458,-0.9987346529960632,-0.0487398020923137,8.395805358886719,-38.58782958984375,-13.29388427734375,-1,0,0,0,0,0,0,0,0,0,0,0,0,0,0,188363.158828,0,-2.4785,100.5376,1698744165.020515,0,1684768783,0,0,1,1698744204.10396,1,0.88,0
1698744233.895506,1171,1698744232.998399,62.44637053801549,5.926329839455852,1.140238,0.1518253,1.032737,-1.0,-1.0,3.474866620248439,4.663672265958665,-9999,1698744233.890342,10.86754608154297,-35.57696533203125,-22.66473388671875,141.6761016845703,139.0777893066406,19.96839714050293,188367.60320925,0.0062713623046875,-0.9797210693359376,-0.26177978515625,188367.57837525,0.0066573699004948,0.0244001485407352,-0.0015393070643767,188367.59276725,135.7232666015625,-663.7962646484375,-717.0595092773438,188367.58706725,2.221730425561476,0.0225481457266916,1.348524129065147,-0.0172041859477758,0.0013705985620617,-0.0108250482007861,0.0055430359207093,-0.0218392014503479,-0.0416174530982971,2,0.2692184784168404,0.5633168493146105,0.7030712839491395,0.3404210396785615,0.0049702525138854,-0.9753990769386292,-0.2203910797834396,11.05185699462891,-35.57550048828125,-22.7723388671875,-1,0,0,0,0,0,0,0,0,0,0,0,0,0,0,188364.159405,0,-2.4785,100.5376,1698744165.020515,0,1684768783,0,0,1,1698744204.10396,1,0.88,0
1698744235.683214,1201,1698744234.998376,62.44637623289621,5.926330440558992,0.1533345,0.1086654,1.019893,-1.0,-1.0,3.466837931132532,4.669643647222937,-9999,1698744235.678337,9.033454895019531,-37.77838134765625,-13.447265625,140.8436889648438,138.2453765869141,19.95363807678223,188369.3912825,0.0016326904296875,-0.9873199462890624,-0.053863525390625,188369.3664485,0.1017213016748428,-0.0057905111461877,0.0283024776726961,188369.3714665,134.1475372314453,-666.0440673828125,-708.157958984375,188369.3751395,2.224411368728288,0.0317583858259944,1.493717887908915,0.1345382481813431,0.0034071281552314,0.0332205444574356,0.004848601296544,0.0126405954360961,0.0119465067982673,2,0.2902462367744635,0.614227227951273,0.6626977866428551,0.3151408277339767,0.0024450765922665,-0.9970309138298036,-0.0769640654325485,9.142860412597656,-37.874267578125,-13.9222412109375,-1,0,0,0,0,0,0,0,0,0,0,0,0,0,0,188366.160556,0,-2.055725,100.5326,1698744165.020515,0,1684768783,0,0,1,1698744204.10396,1,0.88,0
1698744237.471498,1231,1698744236.998355,62.44637701956108,5.926327498725703,-0.770852,0.06360204,1.024424,-1.0,-1.0,3.45986683610941,4.674811066682706,-9999,1698744237.466486,7.713340759277344,-39.291015625,-12.5445556640625,139.0200347900391,136.4217224121094,19.95730400085449,188371.17935425,-0.046600341796875,-0.97686767578125,-0.024261474609375,188371.15451925,-0.0893368050456047,0.0018375811632722,0.0052094091661274,188371.15013925,132.6761016845703,-667.2269287109375,-706.5986328125,188371.16321125,3.005327446508246,-0.74742255046174,1.528838425333486,-0.0988521203398704,-0.0134701896458864,0.0136066488921642,0.0020414497703313,-0.0091199874877929,0.0047060251235961,2,0.3067594721675618,0.6249117376505999,0.6532069476899024,0.2978335398024058,-0.028515487909317,-0.9991198778152466,-0.0307678934186697,7.988563537597656,-39.4122314453125,-12.382080078125,-1,0,0,0,0,0,0,0,0,0,0,0,0,0,0,188368.161711,0,-2.098007,100.5331,1698744165.020515,0,1684768783,0,0,1,1698744204.10396,1,0.88,0
1698744239.25962,1261,1698744238.998334,62.44638029053097,5.926325398152121,-0.03973425,0.1069563,1.011828,-1.0,-1.0,3.458217813284368,4.67603107225257,-9999,1698744239.254488,10.95081329345703,-35.93658447265625,-20.158935546875,140.9007720947266,138.3024597167969,19.96281433105469,188372.9674112917,0.0301971435546875,-1.0035400390625,-0.2164154052734375,188372.9425772917,-0.0048040761612355,0.0271993968635797,-0.0221452489495277,188372.9589982917,135.9087066650391,-664.0808715820312,-714.6869506835938,188372.9512692917,2.188178456641502,0.0775032037771264,1.398686315206457,-0.0008059637621045,0.0319986343383789,-0.0179779734462499,-0.0014955606311559,0.0030477643013,-0.0344826430082321,2,0.268808392093624,0.5851222764089774,0.6908792302200705,0.3287247456758112,0.0132600730285048,-0.9852256178855896,-0.1707479357719421,10.87827301025391,-36.12353515625,-19.93170166015625,-1,0,0,0,0,0,0,0,0,0,0,0,0,0,0,188370.162855,0,-2.256546,100.535,1698744165.020515,0,1684768783,0,0,1,1698744204.10396,1,0.88,0
1698744241.047595,1291,1698744239.998324,62.44638287902056,5.926324091002395,0.0628268,0.185639,1.008006,-1.0,-1.0,3.459693614630882,4.674939264383136,-9999,1698744241.042616,9.874412536621094,-37.50201416015625,-15.9295654296875,139.9369354248047,137.338623046875,19.95708465576172,188374.755466875,0.01251220703125,-0.9819183349609376,-0.134063720703125,188374.730632875,0.0337933823466301,0.0251319855451583,0.0881002992391586,188374.737860875,135.0191040039062,-665.7440185546875,-710.3211669921875,188374.739323875,2.220769490440762,0.0554873650263064,1.454570412040894,0.1011121869087219,0.0028806990012526,0.0422562509775161,-0.0230786576867103,-0.0198082327842712,0.0001861527562141,2,0.2767242338160438,0.6045910876653456,0.6771356994410782,0.3152469658528509,0.0064312969334423,-0.9932533502578736,-0.1157866269350052,10.06526947021484,-37.47821044921875,-15.75445556640625,-1,0,0,0,0,0,0,0,0,0,0,0,0,0,0,188372.164003,0,-2.370163,100.5364,1698744165.020515,0,1684768783,0,0,1,1698744204.10396,1,0.88,0
1698744242.84006,1321,1698744241.998304,62.44638404718897,5.926314531681374,1.232079,0.8040191,0.775589,-1.0,-1.0,3.457231766677173,4.676760154665522,-9999,1698744242.830549,7.595558166503906,-39.085693359375,-11.9539794921875,138.4976348876953,135.8993225097656,19.95761489868164,188376.5435206667,0.0009613037109375,-0.95709228515625,-0.02935791015625,188376.5186866667,-0.0511582605540752,0.0261418558657169,0.0036826191935688,188376.5167586667,132.4696960449219,-667.0123901367188,-706.4922485351562,188376.5273776667,2.9199984005178,-0.6535608500413994,1.522315951142871,-0.0554196164011955,0.0031452728435397,-0.0084617789834737,-0.0052625630050897,0.0092315077781677,0.0146725215017795,2,0.3032188665453059,0.6235545457375619,0.6570369086598066,0.2958726753422741,-0.0294664707034826,-0.9988250732421876,-0.0384760946035385,7.599296569824219,-38.95458984375,-12.07342529296875,-1,0,0,0,0,0,0,0,0,0,0,0,0,0,0,188373.165027,0,-2.370163,100.5364,1698744165.020515,0,1684768783,0,0,1,1698744204.10396,1,0.88,0
1698744244.623633,1351,1698744243.998282,62.44638767450265,5.92632728756146,1.586605,0.203146,0.9933801,-1.0,-1.0,3.457466496791789,4.676586624489186,-9999,1698744244.618425,10.04814910888672,-37.20819091796875,-18.251708984375,140.2756195068359,137.6773071289062,19.9625186920166,188378.331567,0.0073089599609375,-0.9819488525390624,-0.166168212890625,188378.306733,-0.0876270532608032,-5.592638444795739e-06,-0.0043595945462584,188378.325822,134.9141082763672,-665.4898681640625,-712.6865234375,188378.315425,2.225893620963882,0.0443973168198511,1.426919505529049,-0.1014393046498299,-0.0005309544503688,-0.0138434944674372,0.001387758180499,-0.0308709144592285,-0.0169001221656799,2,0.2741560258674438,0.5943215277973344,0.6844818163882629,0.3211000273090914,0.0063636885024607,-0.9896675944328308,-0.1432407945394516,10.20671844482422,-37.0499267578125,-18.25885009765625,-1,0,0,0,0,0,0,0,0,0,0,0,0,0,0,188375.165738,0,-2.100647,100.5331,1698744165.020515,0,1684768783,0,0,1,1698744204.10396,1,0.88,0
1698744246.411707,1381,1698744245.998262,62.44638746884763,5.926333902932588,0.8748515,0.06156918,0.9948103,108.2980747465429,180.0,3.448843239613598,4.682949641130087,-9999,1698744246.406771,10.40869903564453,-36.41412353515625,-18.66436767578125,140.5567779541016,137.9584655761719,19.97217559814453,188380.119608875,0.006195068359375,-1.012222290039062,-0.173492431640625,188380.094774875,0.1125795394182205,0.0033731597941368,0.0308633744716644,188380.104566875,135.3265838623047,-664.6712646484375,-713.196044921875,188380.103466875,2.20816484099442,0.0594820274273906,1.417705498165104,0.0422984696924686,-0.00258762948215,0.014811173081398,0.0027449540793895,0.0033342242240905,-0.0089995265007019,2,0.2726150027698847,0.5912433287051353,0.6863341360389644,0.3241265298231991,0.009065331891179,-0.9883044958114624,-0.1522247791290283,10.43674468994141,-36.31756591796875,-18.42791748046875,-1,0,0,0,0,0,0,0,0,0,0,0,0,0,0,188377.166887,0,-1.960602,100.5315,1698744165.020515,0,1684768783,0,0,1,1698744204.10396,1,0.88,0
1698744248.201646,1411,1698744247.998241,62.44638580273823,5.926329180344498,0.2981302,0.1078883,1.172806,108.2980695761634,180.0,3.447948119347046,4.683608736762712,-9999,1698744248.194729,8.030540466308594,-38.926025390625,-13.32769775390625,139.7057342529297,137.107421875,19.9647388458252,188381.9076525,-0.0146026611328125,-0.982635498046875,-0.0539398193359375,188381.8828185,0.0156631153076887,-0.0154969338327646,0.0179707445204258,188381.8832695,133.1395721435547,-666.8790283203125,-707.4923095703125,188381.8915095,2.45933106770968,-0.1962165526429387,1.513495460264376,0.0224350057542324,-0.0521985217928886,0.0163215994834899,-0.0077702980488538,-0.0111323595046997,0.0037140846252441,2,0.2957001656405109,0.6200601272290287,0.6593842629801029,0.3054495659615374,-0.0111658778041601,-0.9983587265014648,-0.056173700839281,8.247123718261719,-38.62384033203125,-12.87762451171875,-1,0,0,0,0,0,0,0,0,0,0,0,0,0,0,188379.168039,0,-2.208984,100.5344,1698744165.020515,0,1684768783,0,0,1,1698744204.10396,1,0.88,0
1698744249.987732,1441,1698744248.99823,62.44638561432935,5.926337667003848,0.7958254,0.304154,1.33114,108.2980775571813,180.0,3.451209733088628,4.681205871463373,-9999,1698744249.982649,8.192787170410156,-38.78106689453125,-14.5390625,139.6958160400391,137.0975036621094,19.97014236450195,188383.6956926667,-0.00811767578125,-0.981658935546875,-0.0783538818359375,188383.6708586667,-0.0548837557435035,0.0024722123052924,-0.0147123672068119,188383.6921956667,133.2615203857422,-667.1652221679688,-709.2955932617188,188383.6795506667,2.439225875586594,-0.1783774492358722,1.493015405955315,-0.047125868499279,0.0030339872464537,-0.0214548483490943,0.0017481865361332,0.0307288765907287,-0.0019430518150329,2,0.2940740960536868,0.6126047097406193,0.6657155255280617,0.3083162692160927,-0.0137873860076069,-0.9969766139984132,-0.0764717906713485,8.222526550292969,-38.70849609375,-14.35125732421875,-1,0,0,0,0,0,0,0,0,0,0,0,0,0,0,188380.168614,0,-2.372803,100.5364,1698744165.020515,0,1684768783,0,0,1,1698744204.10396,1,0.88,0
1698744251.775762,1471,1698744250.998209,62.44638003398658,5.926342503758809,1.255451,0.2502909,1.329178,108.2980798523383,180.0,3.446047471865188,4.68500734838702,-9999,1698744251.770766,9.98334503173828,-36.656005859375,-19.70306396484375,140.5633392333984,137.9650268554688,19.97718811035156,188385.4837235417,0.0081024169921875,-1.004180908203125,-0.157318115234375,188385.4588905417,-0.008340754546225,0.0155246313661336,-0.0062397862784564,188385.4707865417,134.8217010498047,-664.9321899414062,-714.0719604492188,188385.4675815417,2.234213298501097,0.0290914944258895,1.413025538634144,0.0153675358742475,0.0174100622534751,-0.0119794476777315,0.0016706734895706,0.0182958245277404,0.001930832862854,2,0.2745537936268967,0.5882979141077609,0.6877484579953297,0.3248507610532094,0.0045701540075242,-0.9875800013542176,-0.1570515632629395,10.21129608154297,-36.51153564453125,-19.875732421875,-1,0,0,0,0,0,0,0,0,0,0,0,0,0,0,188382.169764,0,-2.322601,100.5358,1698744165.020515,0,1684768783,0,0,1,1698744204.10396,1,0.88,0
1698744253.563823,1501,1698744252.998187,62.44638240965035,5.926339107486302,0.1105276,0.1236574,1.256175,110.8071809687679,180.0,3.448069087251254,4.683519681001793,-9999,1698744253.558762,9.737815856933594,-37.18194580078125,-17.1043701171875,140.3821563720703,137.7838439941406,19.99032020568848,188387.2717577917,-0.002349853515625,-1.004714965820312,-0.1552734375,188387.2469247917,0.0150479255244135,-0.012973322533071,0.0189507883042097,188387.2493647917,134.8874359130859,-665.2604370117188,-711.59375,188387.2556157917,2.246582271293425,0.0173275609294457,1.452686305409129,0.0356130078434944,-0.0031056231819093,0.0225450433790683,0.0074950018897652,-0.0629209876060485,-0.0594875812530517,2,0.2815353810299486,0.601521511397242,0.6764555502014945,0.3183045511178977,0.0020417273044586,-0.9930331110954284,-0.1178193986415863,9.926658630371094,-37.01202392578125,-17.18292236328125,-1,0,0,0,0,0,0,0,0,0,0,0,0,0,0,188384.170914,0,-2.245972,100.5349,1698744165.020515,0,1684768783,0,0,1,1698744204.10396,1,0.88,0
1698744255.35894,1531,1698744254.998165,62.44638184755446,5.926350492264649,0.2915809,0.4814768,1.298492,110.5640246041613,117.1659662503757,3.452567569175875,4.680204505474501,-9999,1698744255.346727,8.200431823730469,-39.42291259765625,-11.9791259765625,140.0870971679688,137.4887847900391,19.98824310302734,188389.05979075,-0.000213623046875,-0.9758148193359376,-0.0321044921875,188389.03495675,0.0378698855638504,0.0355987399816513,-0.0084249097853899,188389.05814875,133.1444396972656,-667.739501953125,-706.919921875,188389.04364875,2.718041320960125,-0.4650996794560824,1.537927146182803,0.031517818570137,0.0143170710653066,0.0016139121726155,-0.0146930571645498,0.0390410423278808,0.0122095961123704,2,0.3041494420693192,0.6267418141548501,0.6499803874231984,0.303666647391379,-0.0147411730140447,-0.9994598627090454,-0.0293756313621997,8.176292419433594,-39.2718505859375,-12.01385498046875,-1,0,0,0,0,0,0,0,0,0,0,0,0,0,0,188386.172062,0,-2.66082,100.5398,1698744165.020515,0,1684768783,0,0,1,1698744204.10396,1,0.88,0
1698744257.139735,1561,1698744255.998156,62.44638035614922,5.926350980683928,0.7639282,0.3019994,0.9827722,120.3471843083161,102.2552650230094,3.46378986125216,4.671905053602393,-9999,1698744257.134781,9.483528137207031,-38.2984619140625,-16.1741943359375,140.1094360351562,137.5111236572266,19.99661064147949,188390.8478231667,-0.007293701171875,-0.96990966796875,-0.0988311767578125,188390.8229891667,-0.1186680570244789,-0.0010298443958163,0.0141307329759001,188390.8366881667,134.5142669677734,-666.5576782226562,-710.429443359375,188390.8316811667,2.311260226187676,-0.0488336142352807,1.474849237376297,-0.0937690734863281,-0.0120944008231163,0.000442923977971,0.0136028379201889,-0.0042027831077575,-0.0118873715400695,2,0.2876563300166717,0.6077913689838687,0.6704991464240209,0.3134876605279719,-0.0046764588914811,-0.995400607585907,-0.0956869721412658,9.227882385253906,-38.1966552734375,-16.632568359375,-1,0,0,0,0,0,0,0,0,0,0,0,0,0,0,188388.173218,0,-2.814072,100.5416,1698744165.020515,0,1684768783,0,0,1,1698744204.10396,1,0.88,0
1698744258.927702,1591,1698744257.998134,62.44637875957103,5.926351810365137,1.513107,0.1016954,1.178542,118.0053162761202,180.0,3.46513654833398,4.670906307579815,-9999,1698744258.922851,9.652183532714844,-36.02752685546875,-20.68182373046875,140.5204162597656,137.9221038818359,19.98878288269043,188392.6358524167,-0.0045318603515625,-0.9834747314453124,-0.19091796875,188392.6110184167,0.0331361144781112,-0.0015928366919979,0.0128345722332596,188392.6151114167,134.6016387939453,-664.254150390625,-714.7178344726562,188392.6197104167,2.295671685654965,-0.0428689477325194,1.387412551208215,0.0192109793424606,0.0050443364307284,-0.0137992519885301,0.001742091961205,0.0001999735832214,-0.0101618021726608,2,0.2774125736470322,0.5761484676500549,0.6953400644803107,0.3280205325425457,-0.0078150993213057,-0.9832322597503662,-0.1821904182434082,9.740257263183594,-36.14019775390625,-20.30377197265625,-1,0,0,0,0,0,0,0,0,0,0,0,0,0,0,188389.173792,0,-2.637039,100.5395,1698744165.020515,0,1684768783,0,0,1,1698744204.10396,1,0.88,0
1698744260.719572,1621,1698744259.998112,62.44637747083767,5.926365897913639,0.5228863,0.2215946,1.270486,130.959942513985,180.0,3.464614763278171,4.671293351403204,-9999,1698744260.710773,9.643959045410156,-37.5174560546875,-15.30853271484375,141.5429992675781,138.9446868896484,19.9920825958252,188394.423876125,0.002227783203125,-1.027908325195312,-0.08154296875,188394.399042125,0.0454207435250282,0.0180205460637807,-0.0048024784773588,188394.393469125,134.3860778808594,-665.4935913085938,-709.8184814453125,188394.407734125,2.094663367531107,0.1603115725714701,1.486116123030861,0.0698829591274261,-0.003167113289237,-0.0027904165908694,0.0033444799482822,-0.0310186147689819,-0.0069581791758537,2,0.2860391573588057,0.6135419378338903,0.6628246709772941,0.320017911272091,0.0135011980310082,-0.9964167475700378,-0.0834957808256149,9.56682586669922,-37.49774169921875,-15.447998046875,-1,0,0,0,0,0,0,0,0,0,0,0,0,0,0,188391.174945,0,-2.288254,100.5354,1698744165.020515,0,1684768783,0,0,1,1698744204.10396,1,0.88,0
1698744262.503843,1651,1698744261.998091,62.44637619009244,5.926362017964908,0.03581222,0.09872995,1.062125,130.9599391389695,180.0,3.461246153715813,4.673789907149906,-9999,1698744262.498893,8.350914001464844,-38.5343017578125,-13.5911865234375,140.1342926025391,137.5359802246094,20.00038146972656,188396.2118977917,0.0001373291015625,-0.99676513671875,-0.0794219970703125,188396.1870637917,-0.0177489034831523,0.018507370725274,0.0155145106837153,188396.2022147917,133.3672332763672,-666.7622680664062,-707.84765625,188396.1957547917,2.525626449272171,-0.2736979744084402,1.515312978099408,-0.0119114127010107,0.0022527631372213,0.0030075493268668,-0.0136960698291659,0.0177633166313171,-0.0105689838528633,2,0.3008153900963583,0.6187182332798143,0.6573765989261043,0.3074965978161937,-0.0149904927238822,-0.9984611868858336,-0.0533956959843635,8.131523132324219,-38.510986328125,-14.04656982421875,-1,0,0,0,0,0,0,0,0,0,0,0,0,0,0,188393.176095,0,-2.536629,100.5383,1698744165.020515,0,1684768783,0,0,1,1698744204.10396,1,0.88,0
1698744264.291808,1681,1698744263.998072,62.44637101474746,5.926368837616438,1.886277,0.4355891,0.9560175,129.4949219209553,69.72717950782868,3.45869447866402,4.675678510766952,-9999,1698744264.286707,8.766029357910156,-37.94305419921875,-17.62353515625,140.9269866943359,138.3286743164062,20.01198577880859,188397.999914,-0.002685546875,-0.9561767578125,-0.1056060791015625,188397.975081,-0.0563631393015384,-0.0117706395685672,-0.0159131865948438,188397.980811,134.0082092285156,-665.8707275390625,-711.7793579101562,188397.983772,2.384503845117417,-0.1477714422908091,1.45523525347423,-0.0778040513396263,0.0099224532023072,-0.0058849924243986,0.0123687144368886,0.0551129579544067,0.0147904753684997,2,0.2963487314801182,0.5959471799057501,0.6738558818154192,0.3208470318714634,-0.0169769041240215,-0.9933302402496338,-0.1140487790107727,8.999702453613281,-37.754150390625,-17.39300537109375,-1,0,0,0,0,0,0,0,0,0,0,0,0,0,0,188395.177247,0,-2.885414,100.5425,1698744165.020515,0,1684768783,0,0,1,1698744204.10396,1,0.88,0
1698744266.080855,1711,1698744264.998059,62.44636495449436,5.926361037554448,1.163397,0.1991796,1.247578,136.3500928488301,180.0,3.467128865768711,4.669427637402919,-9999,1698744266.074706,10.52040863037109,-36.12994384765625,-20.29473876953125,142.4684753417969,139.8701629638672,20.0150203704834,188399.7879251667,0.0188140869140625,-1.03271484375,-0.178558349609375,188399.7630911667,-0.0264694243669509,0.0122963469475507,0.0013587448047474,188399.7595591667,135.0573272705078,-664.0603637695312,-714.1932983398438,188399.7717831667,2.110454288086417,0.1337429025979813,1.422191873413538,0.0488524511456489,0.011799044907093,0.0054806657135486,0.0044576581567525,-0.0589950084686279,-0.03345488011837,2,0.2770177868299353,0.5915176279806059,0.6791910503644285,0.3347649746903364,0.019742764532566,-0.9889786839485168,-0.1467360854148865,10.46140289306641,-36.18206787109375,-19.84527587890625,-1,0,0,0,0,0,0,0,0,0,0,0,0,0,0,188397.1784,0,-2.589478,100.539,1698744165.020515,0,1684768783,0,0,1,1698744204.10396,1,0.88,0
1698744267.86782,1741,1698744266.998036,62.44636823326577,5.926356119669631,-0.5961303,0.6364287,0.7784733,-1.0,-1.0,3.463448728912526,4.672157952700554,-9999,1698744267.862662,8.235328674316406,-38.208251953125,-15.04754638671875,140.8633117675781,138.2649993896484,20.02067565917969,188401.5759300417,-0.0160675048828125,-1.000640869140625,-0.0913238525390625,188401.5510960417,0.0845827981829643,-0.0003613909648265,0.0499142967164516,188401.5682400417,133.2618560791016,-666.331787109375,-709.4049682617188,188401.5597880417,2.427654769527012,-0.1872565612411378,1.496237411410834,0.0671983435750007,-0.0349753238260746,0.0362689867615699,0.0046973330900073,0.0060563683509826,-0.0260981991887092,2,0.3008732282550765,0.6106390063756039,0.6615329923295765,0.3145944129097156,-0.0138678941875696,-0.9972217679023744,-0.0731906071305275,7.990287780761719,-38.4473876953125,-15.2491455078125,-1,0,0,0,0,0,0,0,0,0,0,0,0,0,0,188398.178977,0,-2.48114,100.5377,1698744165.020515,0,1684768783,0,0,1,1698744204.10396,1,0.88,0
1698744269.655735,1771,1698744268.998015,62.44636970744062,5.926359028217203,1.283125,0.09383694,0.9848718,-1.0,-1.0,3.456357274547399,4.677406484738323,-9999,1698744269.650788,7.377647399902344,-39.20343017578125,-14.45416259765625,141.7593536376953,139.1610412597656,20.02350425720215,188403.363930625,-0.022857666015625,-0.9400634765625,-0.02252197265625,188403.339096625,-0.0503374710679054,0.0220278035849332,-0.0063891895115375,188403.346683625,132.4174652099609,-667.5654296875,-708.5994873046875,188403.347788625,2.681210071019024,-0.4677623736959791,1.513539389441009,-0.0507012866437435,0.0120367584750056,-0.0341668128967285,-0.0065597593784332,0.0538115501403808,0.0391494631767272,2,0.3164414235026522,0.6118201946336309,0.6523039150167428,0.3162921128084028,-0.025804154574871,-0.9983612895011902,-0.0510817505419254,7.405067443847656,-39.290771484375,-14.12823486328125,-1,0,0,0,0,0,0,0,0,0,0,0,0,0,0,188400.180125,0,-2.438866,100.5372,1698744165.020515,0,1684768783,0,0,1,1698744204.10396,1,0.88,0
1698744271.443846,1801,1698744270.997993,62.44636359933197,5.926358593982863,0.6616079,0.2281675,1.1333,133.3671837329332,180.0,3.455820105165316,4.677803376962741,-9999,1698744271.438678,10.77536773681641,-35.5894775390625,-21.77398681640625,144.2201080322266,141.6217956542969,20.02600479125977,188405.1519249167,0.0191192626953125,-1.055648803710938,-0.203948974609375,188405.1270909167,-0.0334271974861621,0.0251394417136907,-0.0058887819759547,188405.1251359167,135.6797027587891,-663.9354248046875,-716.1849365234375,188405.1357829167,2.083936704128335,0.1311814154653054,1.407423476893392,-0.025505406782031,0.0133881065994501,-0.0106254033744335,-0.0043379832059144,-0.0396219491958618,-0.0405165553092956,2,0.2826029330917382,0.5826752452833531,0.678276334395418,0.3472268518614996,0.0212752185761928,-0.9866843223571776,-0.1612502783536911,10.80609893798828,-35.70404052734375,-21.5894775390625,-1,0,0,0,0,0,0,0,0,0,0,0,0,0,0,188402.181279,0,-2.277679,100.5352,1698744165.020515,0,1684768783,0,0,1,1698744204.10396,1,0.88,0
1698744273.231633,1831,1698744272.997972,62.44636603833973,5.926359003868983,-0.03093725,0.2161077,1.210823,133.3671857932636,180.0,3.452876716172546,4.679976433242195,-9999,1698744273.226604,9.504768371582031,-37.35028076171875,-18.2535400390625,143.3618469238281,140.7635345458984,20.03837585449219,188406.939915125,0.0071563720703125,-0.992919921875,-0.1511993408203125,188406.915082125,0.0804652795195579,-0.0170008204877376,0.0496743470430374,188406.933731125,134.4191131591797,-665.5330810546875,-712.736328125,188406.923773125,2.229410999559212,-0.0216113982418928,1.459770118249017,0.1354486346244812,-0.0121434787288308,0.0395684391260147,0.0187212098389864,-0.0091631412506103,-0.0506645962595939,2,0.3008921993420258,0.5950438911239482,0.6658601213015605,0.3346895076871852,-0.0023943388368934,-0.9938428997993468,-0.1107733026146889,9.54167938232422,-37.4405517578125,-18.13995361328125,-1,0,0,0,0,0,0,0,0,0,0,0,0,0,0,188404.182428,0,-2.240692,100.5348,1698744165.020515,0,1684768783,0,0,1,1698744204.10396,1,0.88,0
1698744275.019689,1861,1698744273.997962,62.44636846383018,5.926361413084925,1.525002,0.8117087,0.7521781,-1.0,-1.0,3.449327162811162,4.682593208541816,-9999,1698744275.014609,6.943580627441406,-39.367431640625,-12.7930908203125,143.5262298583984,140.9279174804688,20.0344352722168,188408.72790825,-0.034515380859375,-0.942779541015625,0.0322113037109375,188408.70307525,-0.0323084034025669,-0.0029787456151098,0.0047199204564094,188408.71214825,131.6880035400391,-667.7947998046875,-707.1793212890625,188408.71176625,-2.824606591432825,-1.284006160058753,1.536221487435488,-0.0204822495579719,-0.0310165341943502,0.0029297755099833,0.0018939413130283,0.0476962924003601,0.0407700538635253,2,0.3374498622342946,0.6174446717870344,0.6344699282947223,0.3199026295094911,-0.0331592299044132,-0.9994023442268372,-0.0097793359309434,6.820823669433594,-39.66668701171875,-12.81524658203125,-1,0,0,0,0,0,0,0,0,0,0,0,0,0,0,188405.183009,0,-2.30146,100.5355,1698744165.020515,0,1684768783,0,0,1,1698744204.10396,1,0.88,0
1698744276.807672,1891,1698744275.997941,62.44636501965833,5.926369930746387,1.438631,0.1047278,1.168807,120.7277154220116,180.0,3.447044652337056,4.684273710788401,-9999,1698744276.802728,9.940177917480469,-36.40997314453125,-21.70123291015625,146.8932800292969,144.2949676513672,20.03445625305176,188410.5159,0.0127105712890625,-1.026580810546875,-0.191802978515625,188410.491067,-0.091639369726181,0.0192032549530267,-0.0151243582367897,188410.490535,134.8401489257812,-664.9494018554688,-716.3189086914062,188410.499758,2.083198046828205,0.0760668052394592,1.424001888272215,-0.0564545392990112,0.0065518748015165,-0.0254127420485019,-0.0003580236807465,-0.0287756919860839,-0.0421731919050216,2,0.304750258485137,0.5781042494508929,0.6655696699042026,0.3604717552303879,0.0111154494807124,-0.989245057106018,-0.1458455175161362,9.928596496582031,-36.7025146484375,-21.77020263671875,-1,0,0,0,0,0,0,0,0,0,0,0,0,0,0,188407.184158,0,-2.372803,100.5364,1698744165.020515,0,1684768783,0,0,1,1698744204.10396,1,0.88,0
1698744278.599506,1921,1698744277.997919,62.44636683233848,5.92636370809103,0.6902858,0.03506625,0.8205968,120.7277099980214,180.0,3.445525709150687,4.685391085103836,-9999,1698744278.590684,9.824851989746094,-35.93115234375,-21.42791748046875,147.5413970947266,144.9430847167969,20.03796577453613,188412.30388975,0.00225830078125,-0.9710540771484376,-0.1768035888671875,188412.27905575,0.0489526279270649,0.0055681373924016,0.0238826964050531,188412.29917075,134.6318817138672,-664.2786865234375,-716.064453125,188412.28774775,2.093162611224677,0.0513326034637292,1.416352627153624,0.1006138548254967,-0.0364457815885543,0.0193558018654584,0.0062822941690683,-0.0188913941383361,-0.0381438136100769,2,0.3085896084530173,0.5726763431039426,0.665693745294034,0.3656039186822886,0.0078930854797363,-0.9880972504615784,-0.1536285132169724,9.782798767089844,-35.8033447265625,-21.33538818359375,-1,0,0,0,0,0,0,0,0,0,0,0,0,0,0,188409.185311,0,-2.296181,100.5355,1698744165.020515,0,1684768783,0,0,1,1698744204.10396,1,0.88,0
1698744280.383547,1951,1698744279.997896,62.44636236539174,5.926374711976281,1.501541,0.3702873,1.150073,122.9521537252557,121.0728629534628,3.441350448791755,4.688458608262382,-9999,1698744280.378539,6.902946472167969,-39.3555908203125,-14.05548095703125,147.6448059082031,145.0464935302734,20.02713012695312,188414.0918804167,-0.024169921875,-0.98468017578125,0.011474609375,188414.0670474167,0.0244211871176958,-0.002428536536172,0.0361372306942939,188414.0774754167,131.801513671875,-667.5540161132812,-708.4556884765625,188414.0757384167,-3.10672919999226,-1.065913462574995,1.541846744403067,0.0131796281784772,-0.0140244057402014,0.017964094877243,-0.0082903448492288,0.0092091560363769,0.0272949337959289,2,0.3539135994893255,0.6064181313270766,0.623869158717928,0.3432050246308387,-0.0253400597721338,-0.999580979347229,-0.0140044279396534,6.979530334472656,-39.40643310546875,-14.1495361328125,-1,0,0,0,0,0,0,0,0,0,0,0,0,0,0,188411.186469,0,-2.423012,100.537,1698744165.020515,0,1684768783,0,0,1,1698744204.10396,1,0.88,0
1698744282.171676,1981,1698744281.997874,62.44635884628701,5.92638270259625,1.756115,0.1427684,1.229649,159.5945276614866,180.0,3.46759585089325,4.669080856834325,-9999,1698744282.166945,9.190925598144531,-37.46795654296875,-20.23681640625,150.40625,147.8079376220703,20.02737426757812,188415.8798657917,0.0008392333984375,-0.9979095458984376,-0.1309661865234375,188415.8550327917,-0.0958229303359985,-0.0146492505446076,-0.0216078236699104,188415.8556707917,134.2373046875,-665.41064453125,-714.5077514648438,188415.8637247917,2.077312490131331,0.0111947214543794,1.465557362294106,-0.1039256304502487,-0.0204098038375377,-0.013330478221178,0.015074654482305,-0.0112699270248413,-0.0312972664833068,2,0.3358142471441552,0.5785402778232596,0.6424248239235552,0.3739123921487498,0.0011759413173422,-0.9944674968719482,-0.1050398796796799,9.224586486816406,-37.18939208984375,-19.948486328125,-1,0,0,0,0,0,0,0,0,0,0,0,0,0,0,188413.187621,0,-2.547195,100.5385,1698744165.020515,0,1684768783,0,0,1,1698744204.10396,1,0.88,0
1698744283.959525,2011,1698744282.997866,62.44635818175853,5.926377477978821,0.7629427,0.04179755,0.8516681,159.5945192404167,180.0,3.468641531900633,4.668304077067267,-9999,1698744283.95454,9.686500549316406,-35.83203125,-23.09326171875,151.5677337646484,148.9694213867188,20.03820991516113,188417.667851125,0.010772705078125,-0.9917449951171876,-0.2006072998046875,188417.643018125,0.0876187980175018,-0.0213486980646848,0.0384443290531635,188417.664261125,134.5751342773438,-663.8937377929688,-717.4301147460938,188417.651709125,2.029351475224994,0.0443867164435221,1.402518815799412,0.0164301730692386,-0.0042688464745879,0.045988880097866,0.0220787972211837,0.001041829586029,-0.0453720688819885,2,0.3261038995181991,0.5567730079828174,0.6562965606139521,0.3910690724883232,0.0074316724203526,-0.9858747124671936,-0.1673201322555542,9.93279266357422,-35.7838134765625,-23.03564453125,-1,0,0,0,0,0,0,0,0,0,0,0,0,0,0,188414.188188,0,-2.452072,100.5373,1698744165.020515,0,1684768783,0,0,1,1698744204.10396,1,0.88,0
1698744285.747455,2041,1698744284.997841,62.44635997144714,5.926383471709611,1.560905,0.2057483,1.220846,159.5945294447178,166.4328539919592,3.467481421451004,4.669165838207181,-9999,1698744285.742408,6.853126525878906,-39.1544189453125,-16.760986328125,151.2424621582031,148.6441497802734,20.03032302856445,188419.455828875,0.002410888671875,-0.95574951171875,-0.0218505859375,188419.430995875,0.0186248160898685,0.0268252231180667,-0.0056581520475447,188419.442548875,131.8135833740234,-667.3939819335938,-711.3035888671875,188419.439687875,2.574967135276016,-0.5276784983586887,1.51900512581774,0.0434945411980152,-0.0048773060552775,0.0026253084652125,-0.0315326303243637,0.0341966152191162,0.0311049781739711,2,0.3673974803886967,0.5853662178717239,0.6219809346271495,0.3681106912363648,-0.0260693300515413,-0.9986591339111328,-0.0447309650480747,6.774162292480469,-39.1019287109375,-16.4971923828125,-1,0,0,0,0,0,0,0,0,0,0,0,0,0,0,188416.18934,0,-2.121788,100.5334,1698744165.020515,0,1684768783,0,0,1,1698744204.10396,1,0.88,0
1698744287.535453,2071,1698744286.99782,62.44635264309718,5.926391262660859,1.471316,0.178263,1.277789,155.0245996886144,180.0,3.473410995947389,4.664756487322848,-9999,1698744287.530412,8.222877502441406,-37.69927978515625,-19.21258544921875,153.5298156738281,150.9315032958984,20.0345458984375,188421.243804375,0.016387939453125,-1.038803100585938,-0.108123779296875,188421.218971375,-0.0622082464396953,0.0168679300695657,-0.0475789718329906,188421.220873375,133.3174285888672,-666.2014770507812,-713.8717041015625,188421.227662375,1.979719886725832,0.0574109745560426,1.492228181932832,-0.0756858363747596,0.0173964519053697,-0.0334167182445526,-0.0043969391845166,-0.0186185836791992,-0.0265582278370857,2,0.3547528307586331,0.5787658076871702,0.6243038231989163,0.3865560384177082,0.0045037386007606,-0.9969151020050048,-0.0783611387014389,8.308769226074219,-37.94268798828125,-19.3677978515625,-1,0,0,0,0,0,0,0,0,0,0,0,0,0,0,188418.190882,0,-1.899826,100.5307,1698744165.020515,0,1684768783,0,0,1,1698744204.10396,1,0.88,0
1698744289.323433,2101,1698744288.997802,62.44634941532936,5.926385042183896,0.3946911,0.1488596,1.004534,-1.0,-1.0,3.476203226763453,4.662676072710627,-9999,1698744289.318333,9.635459899902344,-35.58013916015625,-23.56146240234375,153.9525604248047,151.354248046875,20.04071617126465,188423.031775125,0.023590087890625,-0.9954376220703124,-0.189483642578125,188423.006942125,0.0269927345216274,0.0245988201349973,0.0161411520093679,188423.029375125,134.5224914550781,-663.5484619140625,-717.73876953125,188423.015633125,1.964165330069702,0.0719397285777255,1.40698432468705,0.0839084833860397,-0.0019783908501267,0.013023080304265,-0.0145142832770943,0.0198158025741577,-0.0210868716239929,2,0.3361698905952389,0.552865377244819,0.646718284694865,0.4038382100186407,0.0117218988016247,-0.9866127967834472,-0.1626593619585037,9.546424865722656,-35.5106201171875,-23.62774658203125,-1,0,0,0,0,0,0,0,0,0,0,0,0,0,0,188420.191651,0,-2.031944,100.5323,1698744165.020515,0,1684768783,0,0,1,1698744204.10396,1,0.88,0
1698744291.111369,2131,1698744289.997788,62.4463516600678,5.92638480920199,0.7644629,0.05318888,1.004901,-1.0,-1.0,3.474777042558395,4.663739008274152,-9999,1698744291.106461,6.929435729980469,-38.1141357421875,-18.22021484375,152.9992370605469,150.4009246826172,20.03189086914062,188424.819741,-0.021240234375,-0.990966796875,-0.0640106201171875,188424.794908,0.014307833276689,-0.0061162156052887,0.0170889720320701,188424.807646,131.9030914306641,-666.328369140625,-712.765625,188424.803599,2.351523110541848,-0.3323247714422004,1.498504951623861,0.0254130270332098,-0.0053781964816153,-0.0007038689218461,0.0031635295599699,-0.0128201246261596,0.0024827197194099,2,0.3702790462910323,0.573370908595379,0.6231462614954764,0.3818744847564087,-0.0235645659267902,-0.9973881244659424,-0.0682784616947174,6.817314147949219,-38.125244140625,-17.94921875,-1,0,0,0,0,0,0,0,0,0,0,0,0,0,0,188422.192804,0,-2.351669,100.5361,1698744165.020515,0,1684768783,0,0,1,1698744204.10396,1,0.88,0
1698744292.899331,2161,1698744291.997766,62.44634201650882,5.926394253198867,0.6336955,0.1645107,1.011763,-1.0,-1.0,3.478779174810535,4.660754497470701,-9999,1698744292.89427,7.155235290527344,-38.3953857421875,-17.95733642578125,154.4600372314453,151.8617248535156,20.03130149841309,188426.60770725,-0.00860595703125,-0.99755859375,-0.068267822265625,188426.58287425,-0.04512619972229,0.002453570254147,-0.0078509990125894,188426.58586025,131.9998779296875,-666.8723754882812,-712.2860717773438,188426.59156525,2.120150693518005,-0.10936477182875,1.515222133932186,-0.0268499143421649,0.007918082177639,-0.008264597505331,0.0006918786093592,0.0134706497192382,-0.0069622993469238,2,0.3700390403656743,0.5791912740608759,0.6144699183006662,0.3873441596369737,-0.0060630030930042,-0.9984561800956726,-0.0552171543240547,7.099678039550781,-38.56982421875,-17.72235107421875,-1,0,0,0,0,0,0,0,0,0,0,0,0,0,0,188423.193385,0,-2.610611,100.5392,1698744165.020515,0,1684768783,0,0,1,1698744204.10396,1,0.88,0
1698744294.686979,2191,1698744293.997744,62.44634438217434,5.926387431862371,1.357923,0.2155487,1.000367,-1.0,-1.0,3.477871690377088,4.661431704751497,-9999,1698744294.682095,8.798469543457031,-36.80987548828125,-22.92156982421875,155.2358093261719,152.6374969482422,20.03694725036621,188428.3956717917,0.0109100341796875,-0.9857025146484376,-0.1574859619140625,188428.3708387917,-0.0565189346671104,0.0022836606949567,0.0106233498081564,188428.3942287917,133.7467041015625,-664.738525390625,-716.7802734375,188428.3795297917,1.941352106056002,0.0709679536964834,1.429736735431531,-0.0371862389147281,0.0053553069010376,0.0038604154251515,0.0059761041775345,-0.0025474429130554,-0.0156130343675613,2,0.347855649373856,0.555766489561628,0.6359665254626208,0.4070220154916644,0.0099692959338426,-0.9900676012039183,-0.1402401179075241,8.798011779785156,-36.7294921875,-22.546875,-1,0,0,0,0,0,0,0,0,0,0,0,0,0,0,188425.194519,0,-2.452072,100.5373,1698744165.020515,0,1684768783,0,0,1,1698744204.10396,1,0.88,0
1698744296.478885,2221,1698744295.997722,62.44633918789604,5.926387398653769,0.5054537,0.352544,0.9931222,-1.0,-1.0,3.476524770642377,4.662436332208602,-9999,1698744296.47018,7.800987243652344,-36.8446044921875,-21.829833984375,154.5081481933594,151.9098358154297,20.03836059570312,188430.1836346667,-0.01043701171875,-0.991607666015625,-0.11895751953125,188430.1588016667,0.0189132373780012,0.0095122782513499,0.012459066696465,188430.1725516667,132.6987609863281,-665.026611328125,-716.3236083984375,188430.1674936667,2.090321940876279,-0.0847491469997939,1.444972924359303,0.0423548072576522,-0.0142480228096246,0.0132902022451162,0.0077846003696322,-0.0146347284317016,-0.0032371431589126,2,0.3589823350815566,0.5555267513691856,0.6342583526696786,0.4002978433061126,-0.0106227677315473,-0.9920946955680848,-0.1250434219837189,7.879570007324219,-36.9368896484375,-21.68865966796875,-1,0,0,0,0,0,0,0,0,0,0,0,0,0,0,188427.195672,0,-2.208984,100.5344,1698744165.020515,0,1684768783,0,0,1,1698744204.10396,1,0.88,0
1698744298.263014,2251,1698744297.997703,62.44633548444864,5.926381225540752,-0.05151716,0.1057173,0.9845133,-1.0,-1.0,3.481380073864027,4.658812060396013,-9999,1698744298.258124,7.084785461425781,-38.24169921875,-18.57281494140625,154.9144897460938,152.3161773681641,20.04572868347168,188431.9715960417,-0.0034332275390625,-1.0184326171875,-0.0891571044921875,188431.9467630417,-0.0093250581994652,-0.0079774986952543,0.0166045427322387,188431.9508480417,131.9507446289062,-666.3431396484375,-713.012939453125,188431.9554540417,2.169082232238507,-0.1717031126415452,1.503186938626025,0.0190097503364086,-0.0026739775203168,0.0116517208516597,0.0148698296397924,-0.0234030485153198,-0.0286934450268745,2,0.3732966628060386,0.5721591408756499,0.616178246330735,0.3919286626969212,-0.0115434322506189,-0.9977153539657592,-0.0665670409798622,6.996635437011719,-38.15570068359375,-18.66107177734375,-1,0,0,0,0,0,0,0,0,0,0,0,0,0,0,188429.196824,0,-2.351669,100.5361,1698744165.020515,0,1684768783,0,0,1,1698744204.10396,1,0.88,0
1698744300.051155,2281,1698744298.997689,62.44633316786269,5.926379532009292,-0.3057609,0.1947234,0.9855741,-1.0,-1.0,3.482476036653836,4.657992881802271,-9999,1698744300.046072,7.569099426269531,-38.57232666015625,-19.5191650390625,155.6549377441406,153.0566253662109,20.04536819458008,188433.7595530417,-0.0048980712890625,-0.97113037109375,-0.0868072509765625,188433.7347210417,-0.0042671831324696,0.0068829399533569,-0.013463344424963,188433.7290720417,132.5055084228516,-666.5946655273438,-713.86865234375,188433.7434120417,2.043615630126258,-0.0520801312737986,1.488035915291043,-0.028917683288455,-0.0003548301756381,-0.00195217365399,-0.0031581171788275,0.0237377285957336,-9.984523057937622e-05,2,0.3696277858962211,0.5675357765989631,0.6182224803784808,0.398847937870925,-0.0043034646660089,-0.9965773224830629,-0.0825568810105323,7.450675964355469,-38.54815673828125,-19.5850830078125,-1,0,0,0,0,0,0,0,0,0,0,0,0,0,0,188430.197402,0,-2.528702,100.5383,1698744165.020515,0,1684768783,0,0,1,1698744204.10396,1,0.88,0
1698744301.839325,2311,1698744300.99767,62.44633177096431,5.926378612436681,0.6147673,0.08167695,0.9730209,-1.0,-1.0,3.481140174424907,4.658991319888218,-9999,1698744301.833996,8.222908020019531,-37.3983154296875,-21.984130859375,155.5083160400391,152.9100036621094,20.05293083190918,188435.5475095417,0.013092041015625,-0.98919677734375,-0.1091156005859375,188435.5226765417,-0.0101154847070574,0.0087335705757141,0.0066749467514455,188435.5375865417,133.1210327148438,-665.6533203125,-716.37890625,188435.5313675417,1.955100580656439,0.0480401544302914,1.45589591481551,-0.0107493950054049,0.0011195624247193,0.0255718901753425,0.0047330041415989,0.0155314207077026,-0.0001537054777145,2,0.3569876141107076,0.5615174539816797,0.6277352077325742,0.4039883236017155,0.0055056014098227,-0.9934062361717224,-0.114515982568264,8.300636291503906,-37.3070068359375,-22.09185791015625,-1,0,0,0,0,0,0,0,0,0,0,0,0,0,0,188432.198556,0,-2.726875,100.5406,1698744165.020515,0,1684768783,0,0,1,1698744204.10396,1,0.88,0
1698744303.626897,2341,1698744302.997648,62.44632711731086,5.926373276215723,-0.15003,0.2400547,0.8655118,-1.0,-1.0,3.494416186263436,4.649042111012648,-9999,1698744303.621837,7.675209045410156,-36.6600341796875,-22.85894775390625,154.8400268554688,152.2417144775391,20.06059455871582,188437.335453625,-0.0121917724609375,-1.019180297851562,-0.1650848388671875,188437.310621625,0.0031822111923247,0.0350607819855213,0.0189784839749336,188437.316028625,132.7429962158203,-664.985595703125,-717.6220092773438,188437.319312625,2.085275336002804,-0.0855550215766949,1.440675449476007,0.0135232917964458,-0.0195325091481208,0.0145405102521181,-0.0119989030063152,-0.0266118645668029,-0.0191108584403991,2,0.3598781097958414,0.5530346928054646,0.6343602387840317,0.4027749523857067,-0.0110876830294728,-0.9915462136268616,-0.1292807459831238,7.726860046386719,-36.73699951171875,-23.14129638671875,-1,0,0,0,0,0,0,0,0,0,0,0,0,0,0,188434.199707,0,-2.679314,100.54,1698744165.020515,0,1684768783,0,0,1,1698744204.10396,1,0.88,0
1698744305.414802,2371,1698744304.997624,62.44633047785148,5.92636917173941,-0.2472619,0.4515153,0.9568924,-1.0,-1.0,3.489127936591063,4.653012279683843,-9999,1698744305.409792,6.646919250488281,-38.68121337890625,-18.6549072265625,155.2453918457031,152.6470794677734,20.05688858032227,188439.1233969167,-0.00927734375,-0.9673309326171876,-0.0616607666015625,188439.0985639167,0.0781531259417533,0.0043681166134774,0.0121456123888492,188439.0944539167,131.9862518310547,-666.6467895507812,-713.1480102539062,188439.1072549167,2.121194531437072,-0.1263611031007417,1.504777817875912,0.0487609766423702,-0.0070359017699956,0.0004982748068869,0.0030194520950317,0.0168185830116272,-0.0037969946861267,2,0.373290417394904,0.572652280450576,0.614741593853046,0.3934673979321856,-0.008314287289977,-0.997821569442749,-0.0654472634196281,6.895011901855469,-38.56341552734375,-18.524169921875,-1,0,0,0,0,0,0,0,0,0,0,0,0,0,0,188436.200856,0,-2.679314,100.54,1698744165.020515,0,1684768783,0,0,1,1698744204.10396,1,0.88,0
1698744307.202823,2401,1698744306.997602,62.44632781691241,5.926368758136473,-0.2333567,0.3295012,1.050464,-1.0,-1.0,3.508314707918705,4.638562810072763,-9999,1698744307.177649,7.240455627441406,-38.503173828125,-20.29248046875,155.2139282226562,152.6156158447266,20.06432342529297,188440.91133775,-0.0140533447265625,-1.001220703125,-0.0949249267578125,188440.88650475,-0.108182929456234,-0.022832877933979,0.0172301195561885,188440.90305575,131.9105987548828,-666.8443603515625,-714.3950805664062,188440.89519575,2.098713541601684,-0.1045304643896882,1.481572921464294,-0.1165326237678528,0.0128951482474803,-0.0152470730245113,0.0093583725392818,-0.0102339386940002,-0.0024444386363029,2,0.3691401635340922,0.565177486251427,0.6214326723754056,0.3976575154705627,-0.0092973662540316,-0.9960222244262696,-0.0886198952794075,7.231147766113281,-38.62939453125,-20.686767578125,-1,0,0,0,0,0,0,0,0,0,0,0,0,0,0,188438.202005,0,-2.642319,100.5396,1698744165.020515,0,1684768783,0,0,1,1698744204.10396,1,0.88,0
1698744308.994866,2431,1698744307.997591,62.44633001998852,5.926374544186052,0.9113586,0.01655174,1.04983,-1.0,-1.0,3.510347703352336,4.637024480672689,-9999,1698744308.985583,8.284584045410156,-36.4368896484375,-28.7889404296875,155.2264251708984,152.6281127929688,20.06937408447266,188442.6992725417,0.0008392333984375,-0.9825897216796876,-0.2579193115234375,188442.6744405417,-0.0280843656510114,0.0184911265969276,-0.0112435994669795,188442.6814485417,133.1976318359375,-664.3245239257812,-723.2824096679688,188442.6831315417,2.028695509571075,-0.0324929227699748,1.338134173653484,-0.042502075433731,0.0010340129956603,0.0058584297075867,0.0068954131565988,-0.0071533918380737,-0.0298826545476913,2,0.3383797085433074,0.5198802348139552,0.6606530438715619,0.4228018229917631,-0.0074905469082295,-0.9730560183525084,-0.2304474264383316,8.195045471191406,-36.2113037109375,-28.917724609375,-1,0,0,0,0,0,0,0,0,0,0,0,0,0,0,188439.202584,0,-2.528702,100.5382,1698744165.020515,0,1684768783,0,0,1,1698744204.10396,1,0.88,0
1698744310.778566,2461,1698744309.99757,62.44632370410722,5.926358403514908,-0.6662614,0.3796897,0.9143893,-1.0,-1.0,3.508726091895204,4.638251636645284,-9999,1698744310.773499,7.796714782714844,-38.3026123046875,-29.52325439453125,154.8310546875,152.2327423095703,20.07912635803223,188444.487204875,-0.004913330078125,-0.969146728515625,-0.25982666015625,188444.462371875,-0.0049827741459012,-0.01514832675457,0.0158977396786212,188444.459709875,132.7406463623047,-666.0780029296875,-723.7674560546875,188444.471062875,2.051018094719817,-0.052433270687282,1.331577482587481,-0.0235804729163646,-0.0009643016383051,0.0163512825965881,0.0092747146263718,-0.0072975754737854,-0.0253441929817199,2,0.33788349080668,0.5172286303005427,0.6637514947247618,0.4215962248204664,-0.0124180680140852,-0.9715233445167542,-0.2366185784339905,7.788566589355469,-38.3560791015625,-29.4351806640625,-1,0,0,0,0,0,0,0,0,0,0,0,0,0,0,188441.203737,0,-2.441505,100.5372,1698744165.020515,0,1684768783,0,0,1,1698744204.10396,1,0.88,0
1698744312.566533,2491,1698744311.997548,62.44632426933824,5.926354038211489,0.43607,0.06493454,1.014917,-1.0,-1.0,3.496362545942109,4.647578507149938,-9999,1698744312.561456,6.612922668457031,-39.8563232421875,-31.34979248046875,153.6377563476562,151.0394439697266,20.07736968994141,188446.275132625,-0.050140380859375,-0.9258270263671876,-0.2326812744140625,188446.250299625,-0.1049551740288734,0.0052323127165436,0.0029033781029284,188446.268098625,131.6074371337891,-667.9898681640625,-725.8824462890625,188446.258990625,2.16400024263676,-0.1743479877592418,1.304182585224347,-0.1317875236272812,-0.00163827650249,0.0024041603319346,-0.004697285592556,0.023002803325653,0.0293853878974914,2,0.3449687322230078,0.5012587293172308,0.6742686924831192,0.4184472787974153,-0.0457025282084941,-0.9646685719490052,-0.259472519159317,6.448341369628906,-40.07025146484375,-31.11102294921875,-1,0,0,0,0,0,0,0,0,0,0,0,0,0,0,188443.204887,0,-2.58683,100.5389,1698744165.020515,0,1684768783,0,0,1,1698744204.10396,1,0.88,0
1698744314.358978,2521,1698744313.997526,62.44632836314472,5.926347102937424,0.3409365,0.2157845,1.004122,-1.0,-1.0,3.492239978890463,4.65067704346668,-9999,1698744314.34932,9.42009735107422,5.3509521484375,-16.435302734375,149.4402770996094,146.8419647216797,15.04779529571533,188448.0630550417,-0.021575927734375,-0.9293212890625,-0.466583251953125,188448.0382230417,-0.1241850629448891,0.0018503642641007,0.0067079700529575,188448.0465070417,133.59765625,-664.2098999023438,-736.73779296875,188448.0469140417,2.156588788168571,-0.0821064325378819,1.137099842800481,-0.0596192590892314,0.0155556742101907,0.0050568175502121,0.0076549686491489,-0.0082309246063232,-0.0477402508258819,2,0.2848380421895376,0.4576691857991586,0.7314581133742099,0.4175827545262438,-0.0344646759331226,-0.9074186086654664,-0.4188124239444733,9.534645080566406,5.05426025390625,-16.55157470703125,-1,0,0,0,0,0,0,0,0,0,0,0,0,0,0,188445.206038,0,-2.446793,100.5373,1698744165.020515,0,1684768783,0,0,1,1698744204.10396,1,0.88,0
1698744316.142316,2551,1698744314.997516,62.4463237838274,5.926340885008802,0.2070699,0.09030687,0.9993703,-1.0,-1.0,3.490162863723272,4.652236044900969,-9999,1698744316.137235,10.60562896728516,7.26763916015625,-22.29156494140625,149.3350830078125,146.7367706298828,15.05315971374512,188449.8509762917,-0.0128631591796875,-0.863677978515625,-0.545745849609375,188449.8261432917,-0.0340474508702755,0.0842275321483612,-0.0578201562166214,188449.8249552917,135.1229400634766,-662.0899658203125,-742.42236328125,188449.8348342917,2.143542546098808,-0.0664087011892905,1.035167665982469,-0.0352767333388328,0.0458054430782795,0.0243644267320632,-0.0219172649085521,0.0056235194206237,-0.0027822256088256,2,0.2619887246970292,0.420396763317623,0.7547587111072845,0.4300790120043735,-0.0338688939809799,-0.859947919845581,-0.5092569589614868,10.65059661865234,7.2783203125,-22.265869140625,-1,0,0,0,0,0,0,0,0,0,0,0,0,0,0,188447.207193,0,-2.005524,100.532,1698744165.020515,0,1684768783,0,0,1,1698744204.10396,1,0.88,0
1698744317.930108,2581,1698744316.997494,62.44632202949551,5.926336127515391,0.7199908,0.05334129,0.9782634,-1.0,-1.0,3.486784943349169,4.654768285492025,-9999,1698744317.925256,9.882041931152344,6.6629638671875,-22.5694580078125,148.4450988769531,145.8467864990234,15.06793689727783,188451.638893375,-0.0675201416015625,-0.7364349365234375,-0.4191436767578125,188451.614060375,0.0048639974556863,-0.053967360407114,-0.0507899448275566,188451.633599375,134.1719360351562,-661.99951171875,-742.4774169921875,188451.622751375,2.172957562594041,-0.0935950311744397,1.024491690781299,0.0699879229068756,-0.0964210480451583,0.1000456735491753,0.0840924605727195,0.1678504347801208,0.0569324493408203,2,0.2640461716584599,0.4143065024327623,0.7598802489647475,0.4256898679338137,-0.0485547818243503,-0.8544502258300781,-0.5172594785690308,9.944969177246094,6.6405029296875,-22.27459716796875,-1,0,0,0,0,0,0,0,0,0,0,0,0,0,0,188448.20777,0,-1.775642,100.5292,1698744165.020515,0,1684768783,0,0,1,1698744204.10396,1,0.88,0
1698744319.720367,2611,1698744318.997474,62.44631966276817,5.926330281985061,0.7389784,0.1220275,0.9810376,-1.0,-1.0,3.482732762416577,4.657800933743201,-9999,1698744319.713094,8.999397277832031,7.5277099609375,-24.38409423828125,148.1183013916016,145.5199890136719,15.075270652771,188453.426806625,-0.0880584716796875,-0.7967681884765625,-0.507568359375,188453.401974625,-0.098503939807415,-0.0321139954030513,0.0568006969988346,188453.412221625,132.95849609375,-661.75244140625,-744.6057739257812,188453.410665625,2.195557881402999,-0.124189469999671,1.006210599565935,-0.088365189731121,0.0130403907969594,0.0068880165927112,0.0112556815147399,-0.0263292789459228,-0.0075678825378417,2,0.267627283637178,0.4036124695001833,0.76475935184082,0.4249893955216638,-0.0662788972258567,-0.8448103070259094,-0.5309452414512634,9.354042053222656,7.68927001953125,-24.3515625,-1,0,0,0,0,0,0,0,0,0,0,0,0,0,0,188450.208919,0,-1.564255,100.5267,1698744165.020515,0,1684768783,0,0,1,1698744204.10396,1,0.88,0
1698744321.507007,2641,1698744320.99745,62.44632226742542,5.926328521210601,0.5303836,0.3483368,1.0179,327.0493380638061,110.7562885362859,3.488017045985066,4.653845089783979,-9999,1698744321.50098,10.39740753173828,10.06658935546875,-26.01593017578125,148.4397583007812,145.8414459228516,15.0588960647583,188455.214716125,-0.0253448486328125,-0.8192901611328125,-0.6173553466796875,188455.189884125,0.0342208221554756,0.0160378217697143,-0.0060403156094253,188455.190649125,134.1467742919922,-659.4263305664062,-746.4867553710938,188455.198575125,2.16576589135771,-0.0856375419659284,0.9522957723673992,0.0590864717960357,0.0426631011068821,-0.0043573528528213,-0.0015085153281688,0.0095424056053161,-0.0304953455924987,2,0.2482793110732018,0.3866687079524489,0.7751422996513477,0.4335887434539508,-0.0495931953191757,-0.8147487640380859,-0.5776894092559814,10.09354400634766,9.7779541015625,-26.34130859375,-1,0,0,0,0,0,0,0,0,0,0,0,0,0,0,188452.210072,0,-1.31852,100.5238,1698744165.020515,0,1684768783,0,0,1,1698744204.10396,1,0.88,0
1698744323.293841,2671,1698744322.997431,62.44631918847418,5.926332168911342,0.640919,0.03762818,0.9549717,328.2306362301531,180.0,3.490835388895388,4.651731432533957,-9999,1698744323.288816,10.14069366455078,5.5118408203125,-18.715576171875,149.0988922119141,146.5005798339844,15.04544734954834,188457.002623375,0.007171630859375,-0.877197265625,-0.4498138427734375,188456.977791375,0.0996064841747283,-0.06065109744668,-0.0306599084287881,188456.999126375,134.0692291259766,-663.8566284179688,-738.6273193359375,188456.986482375,2.149776059947495,-0.065588010193414,1.095732278755161,0.0795922800898551,0.0944418981671333,0.0057105482555925,0.0345862954854965,0.0149194598197937,-0.0250788331031799,2,0.2723287518732918,0.4445570173021837,0.7422760924694702,0.420989952814337,-0.0299781672656536,-0.8892634510993958,-0.4564122259616852,10.02922821044922,5.18310546875,-19.0379638671875,-1,0,0,0,0,0,0,0,0,0,0,0,0,0,0,188454.211224,0,-1.173195,100.522,1698744165.020515,0,1684768783,0,0,1,1698744204.10396,1,0.88,0
1698744325.081743,2701,1698744323.997417,62.44631896602576,5.926334666693872,0.499258,0.07077385,1.097549,328.2306390557094,180.0,3.490578667380599,4.651924075005558,-9999,1698744325.076739,9.29644012451172,3.82305908203125,-11.2509765625,148.8077697753906,146.2094573974609,15.04948234558105,188458.7905276667,-0.0240936279296875,-0.9482269287109376,-0.3604583740234375,188458.7656955,0.0303834713995456,0.0303160939365625,-0.0092664686962962,188458.7775515,133.4512481689453,-665.3253784179688,-731.2108764648438,188458.7743865,2.184242939729015,-0.0989197747771953,1.220794448814774,0.0300501603633165,0.0024706749245524,0.0139201693236827,-0.0087688043713569,-0.0103350281715393,-0.0094539821147918,2,0.2996504046113282,0.489487409180996,0.7133803158987514,0.4021197702419935,-0.0338642708957195,-0.9393720626831056,-0.341223418712616,9.159156799316406,3.65362548828125,-11.87652587890625,-1,0,0,0,0,0,0,0,0,0,0,0,0,0,0,188456.212372,0,-1.128273,100.5215,1698744165.020515,0,1684768783,0,0,1,1698744204.10396,1,0.88,0
1698744326.869658,2731,1698744325.997396,62.4463247322422,5.926336580364102,-0.1422778,0.1399512,1.244928,328.2306434281242,180.0,3.471870772688322,4.66590295339942,-9999,1698744326.864503,8.500892639160156,3.61395263671875,-9.6671142578125,281.0223388671875,278.4240417480469,14.53824520111084,188460.5784282917,0.0417022705078125,-0.9099578857421876,-0.380859375,188460.5535962917,0.1982518285512924,0.1586322486400604,0.1023213118314743,188460.5560702917,132.3918151855469,-666.0879516601562,-730.3158569335938,188460.5622872917,-0.1073254892141357,-0.1103170676785939,1.241304575101182,0.1988661140203476,0.1458104848861694,0.0632189288735389,0.0219197273254394,0.0627991557121276,-0.0374587178230285,2,0.5774398331138094,-0.0759300823395848,-0.0755831586109043,0.8093733676965561,-0.0356221199035644,-0.9462069272994996,-0.3215957283973694,8.301506042480469,2.8226318359375,-10.483642578125,-1,0,0,0,0,0,0,0,0,0,0,0,0,0,0,188457.212951,0,-1.215469,100.5226,1698744165.020515,0,1684768783,0,0,1,1698744204.10396,1,0.88,0
1698744328.657468,2761,1698744327.997374,62.44632411793977,5.926334068468228,-0.4673939,0.05906727,1.588996,328.2306402749781,180.0,3.474587094365365,4.663880525534342,-9999,1698744328.652527,28.81305694580078,26.47283935546875,9.4427490234375,280.4563293457031,277.8580322265625,14.52759075164795,188462.3663264167,-0.0170440673828125,-0.9369964599609376,-0.2387847900390625,188462.3414944167,0.0411567576229572,0.0303597692400217,0.0056975670158863,188462.3647984167,152.949951171875,-643.0626220703125,-711.0333251953125,188462.3501854167,-0.1630482707164274,-0.0253261137178545,1.304282878169054,-0.013775760307908,-0.011861827224493,-0.0049391291104257,-0.0125719103962183,0.0159645080566406,0.0239817202091217,2,0.6040060842594493,-0.0594481404800715,-0.0723766544136012,0.7914570063146873,-0.0066694151610136,-0.9646950364112854,-0.2632851302623749,28.65752410888672,26.44036865234375,9.53594970703125,-1,0,0,0,0,0,0,0,0,0,0,0,0,0,0,188459.214127,0,-1.693726,100.5283,1698744165.020515,0,1684768783,0,0,1,1698744204.10396,1,0.88,0
1698744330.445255,2791,1698744329.997352,62.44631888535501,5.926333023399074,-0.3220039,0.1337657,3.170014,328.2306371123513,180.0,3.474880830216836,4.663661678185971,-9999,1698744330.440425,29.61290740966797,27.12750244140625,8.0819091796875,280.3838195800781,277.7855224609375,14.53134536743164,188464.154221125,-0.0118255615234375,-0.9684906005859376,-0.2743377685546875,188464.129390125,0.0374815948307514,0.0460804104804992,-0.000214650775888,188464.143314125,153.6977386474609,-642.0718994140625,-712.106201171875,188464.138080125,-0.1896606415584946,0.0112366010496193,1.28676947915888,-0.045100063085556,0.0003499221056699,-0.0156654082238674,-0.0472465977072715,0.027805745601654,-0.0042325854301452,2,0.5976274366590051,-0.0523283526090885,-0.0724006925116785,0.7967820174312058,0.0031486998777836,-0.9599348306655884,-0.2802063822746277,29.65146636962891,27.08599853515625,8.03009033203125,-1,0,0,0,0,0,0,0,0,0,0,0,0,0,0,188461.215254,0,-2.113861,100.5333,1698744165.020515,0,1684768783,0,0,1,1698744204.10396,1,0.88,0
1698744332.239583,2821,1698744331.997334,62.44631973043066,5.926323058662359,-0.001835315,0.09610754,3.601437,328.2306258242283,180.0,3.473688837248251,4.664549591843325,-9999,1698744332.228202,30.47489166259766,27.35235595703125,2.18414306640625,279.5513000488281,276.9530029296875,14.53834819793701,188465.942112125,0.003936767578125,-0.8784637451171875,-0.3921661376953125,188465.917280125,-0.041394043713808,-0.0005454153870232,0.0275336224585771,188465.921748125,154.9932250976562,-641.68505859375,-717.9359741210938,188465.925971125,-0.1631474141779083,-0.0054704471119045,1.185371461060233,-0.0310231018811464,-0.0131904054433107,0.0154587719589471,0.0105862878262996,0.0269957184791564,-0.0145096182823181,2,0.5565462069069013,-0.0477767743028774,-0.0691082891873289,0.8265578249685361,-0.0020566207822412,-0.9266387820243835,-0.3759473860263824,30.83057403564453,27.5308837890625,2.3282470703125,-1,0,0,0,0,0,0,0,0,0,0,0,0,0,0,188463.216404,0,-2.158775,100.5338,1698744165.020515,0,1684768783,0,0,1,1698744204.10396,1,0.88,0
1698744334.02111,2851,1698744332.99732,62.44631896372304,5.926319697414899,0.3717042,0.09788964,3.607779,328.2306216254713,180.0,3.47130432838664,4.666324387836,-9999,1698744334.016063,30.14072418212891,27.39520263671875,-1.31396484375,279.2395324707031,276.6412353515625,14.54884243011475,188467.7300022917,-0.0205535888671875,-0.914276123046875,-0.390960693359375,188467.7051712917,-0.0362884998321533,0.0262454524636268,-0.0082534020766615,188467.7001662917,154.0214233398438,-641.7021484375,-721.5636596679688,188467.7138612917,-0.1304860789288035,-0.0481649603888352,1.135678202573759,-0.0486098937690258,-0.0034088585525751,-0.0090036951005458,-0.0106655545532703,0.0107020139694213,0.0364768803119659,2,0.5351880851324888,-0.0553113416209527,-0.0678722033506888,0.8401831775853711,-0.0202945284545421,-0.9068202376365662,-0.421028733253479,30.13986968994141,27.272705078125,-1.40667724609375,-1,0,0,0,0,0,0,0,0,0,0,0,0,0,0,188464.216984,0,-2.039871,100.5324,1698744165.020515,0,1684768783,0,0,1,1698744204.10396,1,0.88,0
1698744335.809001,2881,1698744334.997301,62.44631817775402,5.926312468363632,-0.1340504,0.2291525,4.659624,328.2306129161,180.0,3.469241305029473,4.667858374058303,-9999,1698744335.804121,33.49358367919922,32.0789794921875,-10.6923828125,279.8342895507812,277.2359924316406,14.55090236663818,188469.5178921667,0.0267181396484375,-0.8669586181640625,-0.580108642578125,188469.4930601667,-0.0832829028367996,0.0361763797700405,-0.0142106274142861,188469.5086251667,157.6012115478516,-637.1615600585938,-730.763671875,188469.5017501667,-0.1827815867630425,0.0203804541341934,1.004134886832069,-0.0944915190339088,0.0548160150647163,-0.0375885888934135,-0.001479391939938,-0.0061710476875305,-0.0374047756195068,2,0.4800207704557261,-0.0350220829973562,-0.075113185644756,0.8733337024831536,0.010939847677946,-0.8436978459358215,-0.5367070436477661,33.47487640380859,32.140869140625,-11.037841796875,-1,0,0,0,0,0,0,0,0,0,0,0,0,0,0,188466.21813,0,-1.635597,100.5276,1698744165.020515,0,1684768783,0,0,1,1698744204.10396,1,0.88,0
1698744337.598609,2911,1698744336.997277,62.44632207579135,5.926301273454514,-0.7880279,0.2911036,3.741772,328.2306013309213,180.0,3.458836158956276,4.675573703652359,-9999,1698744337.591907,35.94788360595703,34.6514892578125,-18.09942626953125,279.4488220214844,276.8505249023438,14.57138442993164,188471.30577075,0.0249786376953125,-0.782989501953125,-0.68939208984375,188471.28093875,-0.0064009074121713,0.0057753310538828,0.0084036048501729,188471.28693475,159.6966094970703,-634.1571044921875,-737.7386474609375,188471.28962975,-0.177781156509584,0.0265567757408569,0.9025504669614968,-0.0195944104343652,-0.012761608697474,-0.0032458088826388,0.0068930368870496,0.0169042348861694,-0.0653311014175415,2,0.4354139706179229,-0.0268103290276021,-0.0741116861411594,0.8967739796955553,0.0164529159665107,-0.7849097847938538,-0.6193917393684387,35.64574432373047,34.98193359375,-17.56854248046875,-1,0,0,0,0,0,0,0,0,0,0,0,0,0,0,188468.219289,0,-1.210182,100.5225,1698744165.020515,0,1684768783,0,0,1,1698744204.10396,1,0.88,0
1698744339.38466,2941,1698744338.997255,62.44632150776685,5.926312168828304,-1.061211,0.103896,3.830903,328.230613805649,180.0,3.466748625885944,4.669709947920401,-9999,1698744339.379671,34.14257049560547,32.924072265625,-19.59503173828125,278.4911193847656,275.892822265625,14.56859683990479,188473.093652375,-0.04931640625,-0.7704925537109375,-0.5570831298828125,188473.068820375,-0.0642990916967392,0.0305829420685768,0.0284960903227329,188473.065310375,158.3555603027344,-636.2850952148438,-739.8126220703125,188473.077511375,-0.1351341870609188,-0.0270528400495009,0.8927077042449545,-0.0001458502374589,-0.0469702742993831,-0.0124853383749723,-0.0330347195267677,-0.0085805058479309,0.0652629137039184,2,0.4298312833351865,-0.0413154463842623,-0.0667209790144284,0.8994923989549117,-0.0169683322310447,-0.7787731289863586,-0.6270762085914612,34.13538360595703,32.83526611328125,-19.57965087890625,-1,0,0,0,0,0,0,0,0,0,0,0,0,0,0,188470.220443,0,-1.099205,100.5212,1698744165.020515,0,1684768783,0,0,1,1698744204.10396,1,0.88,0
1698744341.172535,2971,1698744339.997247,62.44632137988801,5.926321486531864,-0.5740505,0.1087321,3.735973,328.2306246071017,180.0,3.465841179980667,4.670383490457614,-9999,1698744341.167336,37.66825103759766,40.748779296875,-29.91180419921875,278.2667541503906,275.66845703125,14.57625579833984,188474.88153125,-0.0233306884765625,-0.6447601318359375,-0.7563323974609375,188474.85669925,-0.156836211681366,0.048790443688631,0.0024746092967689,188474.87379325,161.6977233886719,-628.5807495117188,-750.0719604492188,188474.86539025,-0.1394866558058012,-0.0120312956033527,0.7313889675295114,-0.1813066601753235,-0.0085783908143639,-0.0306234564632177,-0.0082120904698967,-0.0118904113769531,-0.0092242956161499,2,0.3563306211447798,-0.0305235751544154,-0.0672235638208714,0.9314386247658292,-0.0089540453627705,-0.6679040193557739,-0.7441936135292053,37.84597015380859,41.03436279296875,-30.03399658203125,-1,0,0,0,0,0,0,0,0,0,0,0,0,0,0,188472.221593,0,-0.808548,100.5177,1698744165.020515,0,1684768783,0,0,1,1698744204.10396,1,0.88,0
1698744342.960521,3001,1698744341.997221,62.44632143374813,5.926329078356806,-0.6258557,0.2207258,3.852154,328.2306334666217,180.0,3.474789338464419,4.66372984703047,-9999,1698744342.955395,42.17052459716797,48.88604736328125,-38.7310791015625,278.4730529785156,275.874755859375,14.59516143798828,188476.669408,-0.1243896484375,-0.357635498046875,-0.721282958984375,188476.644576,0.0329217314720153,-0.0051681301556527,0.0280606634914875,188476.652042,166.4114532470703,-620.1522216796875,-758.8313598632812,188476.653267,-0.1574509559132436,0.0310241714898769,0.5669899658760627,0.0267236195504665,-0.063825637102127,0.0425570383667945,-0.0416530221700668,0.1897290349006653,0.224020779132843,2,0.2799840845706493,-0.0071489534662302,-0.071170588485066,0.9573363208381708,0.0261653587222099,-0.5370954275131226,-0.8431156277656555,42.32222747802734,49.1119384765625,-38.70965576171875,-1,0,0,0,0,0,0,0,0,0,0,0,0,0,0,188473.222166,0,-0.560173,100.5147,1698744165.020515,0,1684768783,0,0,1,1698744204.10396,1,0.88,0
1698744344.748268,3031,1698744343.9972,62.44631751066664,5.926320920264941,-2.305809,0.161407,3.998051,328.2306225089498,180.0,3.476362301704206,4.662557472040283,-9999,1698744344.743248,39.33708953857422,42.452392578125,-33.755615234375,278.0295715332031,275.4312744140625,14.62191200256348,188478.4572815417,0.0043182373046875,-0.64117431640625,-0.7994384765625,188478.4324495417,-0.008635033853352,-0.0129094067960977,0.0546648427844047,188478.4301715417,163.4225006103516,-626.32421875,-754.4605712890625,188478.4411405417,-0.1401471586404216,0.0009373499835756,0.6947419060889947,-0.0020826100371778,-0.0173055604100227,-0.0207402892410755,0.0047730775550007,-0.1009475588798523,-0.0477449893951416,2,0.3396222740495242,-0.0233958043403139,-0.0656750671593446,0.9379746189516184,0.0007200899999588,-0.6401872038841248,-0.7682186961174011,39.24840545654297,42.7108154296875,-33.93902587890625,-1,0,0,0,0,0,0,0,0,0,0,0,0,0,0,188475.223317,0,-0.08191681,100.509,1698744165.020515,0,1684768783,0,0,1,1698744204.10396,1,0.88,0
1698744346.53616,3061,1698744345.997179,62.44630729722096,5.926327352783775,-3.206718,0.07841219,3.783665,328.2306262006011,180.0,3.476122592403293,4.662736187623341,-9999,1698744346.531098,38.87419891357422,43.17266845703125,-34.125,277.0431823730469,274.4448852539062,14.62631797790527,188480.2451520417,-0.050048828125,-0.66094970703125,-0.7399139404296875,188480.2203210417,-0.0833931639790535,0.0204916931688785,-0.0140108903869986,188480.2386750417,163.1025695800781,-626.1004638671875,-754.330322265625,188480.2290110417,-0.1140079395578026,-0.0250762248610651,0.7034734337873171,-0.1172004044055939,0.0046124011278152,0.0020652073435485,-0.0016918629407882,-0.0132096409797668,0.0220801830291748,2,0.3432714303064837,-0.0313783661825416,-0.0577933654278804,0.9369313098585444,-0.0191211253404617,-0.6468704342842102,-0.7623602747917175,38.55196380615234,43.316650390625,-34.13360595703125,-1,0,0,0,0,0,0,0,0,0,0,0,0,0,0,188477.22447,0,-0.05548859,100.5087,1698744165.020515,0,1684768783,0,0,1,1698744204.10396,1,0.88,0
1698744348.324219,3091,1698744347.997159,62.44631409137087,5.926317719603722,-5.221498,0.614914,4.464118,328.2306175107689,180.0,3.481988390100641,4.65835742338361,-9999,1698744348.31898,41.72275543212891,48.7236328125,-38.52001953125,276.8915405273438,274.2932434082031,14.63420963287354,188482.03302125,0.0310516357421875,-0.459075927734375,-0.95758056640625,188482.00819025,-0.0856850743293762,0.1467100828886032,0.0007326356135308,188482.01716625,165.9946136474609,-620.6033325195312,-758.59814453125,188482.01688025,-0.1244299734798302,0.0145470421476698,0.5969291432637254,-0.0268007274717092,0.0460737757384777,-0.0323004759848117,-0.1067880094051361,0.0485249161720275,-0.0567955374717712,2,0.2939085127832589,-0.0113437710715111,-0.0572898276093432,0.9540478377507854,0.0120309358462691,-0.5621052980422974,-0.8269782066345215,41.85787200927734,48.643310546875,-38.37548828125,-1,0,0,0,0,0,0,0,0,0,0,0,0,0,0,188479.225622,0,0.08983612,100.507,1698744165.020515,0,1684768783,0,0,1,1698744204.10396,1,0.88,0
1698744350.120989,3121,1698744348.997146,62.44631688432764,5.926326457181981,-5.23022,0.0596173,3.095338,328.2306287229101,180.0,3.485928983119843,4.655409343702646,-9999,1698744350.106904,39.80779266357422,43.67626953125,-34.91619873046875,276.6795349121094,274.0812377929688,14.64037227630615,188483.820887625,-0.0072021484375,-0.602874755859375,-0.792022705078125,188483.7960565417,0.0055814529769122,0.008330900222063,0.0474655181169509,188483.7956345417,163.8827972412109,-625.5072021484375,-754.6848754882812,188483.8047465417,-0.1168862958224062,0.0006485161985008,0.670705981995672,0.0291422624140977,-0.0666708648204803,0.0340125411748886,0.0146286860108375,-0.0386019349098205,-0.0214418172836303,2,0.3285584765255716,-0.0189171617921824,-0.0550495750381358,0.942688253453338,0.000508036580868,-0.6215391755104065,-0.7833829522132874,39.78881072998047,43.66619873046875,-34.61767578125,-1,0,0,0,0,0,0,0,0,0,0,0,0,0,0,188481.226771,0,0.06869507,100.5072,1698744165.020515,0,1684768783,0,0,1,1698744204.10396,1,0.88,0
1698744351.899781,3151,1698744350.997125,62.44631400698452,5.926335379777125,-5.776657,0.0488978,3.419342,328.2306380418964,180.0,3.478584295171645,4.660899948955569,-9999,1698744351.894719,40.45168304443359,45.566650390625,-38.4591064453125,276.1902770996094,273.5919799804688,14.63729190826416,188485.60875125,-0.01800537109375,-0.6135406494140625,-0.821807861328125,188485.58391925,-0.0337885878980159,0.0506189689040184,-0.0222294051200151,188485.60437525,164.2558898925781,-623.898193359375,-759.3697509765625,188485.59261025,-0.1036639790628497,-0.0140323661649607,0.6313133472525949,-0.1060022413730621,0.0098425531759858,0.008471306413412,0.0034079877659678,0.0190383791923522,-0.0112925171852111,2,0.3096706624560195,-0.0227436799485826,-0.0514230037152254,0.9491799592890514,-0.0113272992894053,-0.5902054905891418,-0.8071736097335815,40.35703277587891,45.51812744140625,-38.73211669921875,-1,0,0,0,0,0,0,0,0,0,0,0,0,0,0,188482.227349,0,0.0369873,100.5076,1698744165.020515,0,1684768783,0,0,1,1698744204.10396,1,0.88,0
1698744353.687546,3181,1698744352.997102,62.44631526025889,5.926340629442379,-5.353524,0.2300178,4.125651,328.2306446203574,180.0,3.485544528415001,4.655697195181951,-9999,1698744353.682512,44.54709625244141,56.0587158203125,-46.32208251953125,275.5665588378906,272.96826171875,14.6391544342041,188487.396612625,0.0359344482421875,-0.34735107421875,-0.9233856201171876,188487.371781625,-0.156941145658493,0.0916699990630149,0.0116507969796657,188487.382925625,168.6740417480469,-613.3309936523438,-766.7188720703125,188487.380471625,-0.0992488653015681,0.0097093079826353,0.4275145833521222,-0.1243139281868935,0.0112050762400031,0.0242453888058662,-0.028702262789011,0.0023635625839233,0.0113356113433837,2,0.2121048243315223,-0.0057842331617338,-0.0474459781654189,0.9760774718029744,0.0088353222236037,-0.414610356092453,-0.909956157207489,44.47980499267578,56.49560546875,-45.849365234375,-1,0,0,0,0,0,0,0,0,0,0,0,0,0,0,188484.2285,0,-0.09777069,100.5092,1698744165.020515,0,1684768783,0,0,1,1698744204.10396,1,0.88,0
1698744355.478031,3211,1698744354.99708,62.44631970841032,5.926339877106476,-5.651794,0.131132,3.554138,328.2306453984851,180.0,3.483807612917818,4.656997052711618,-9999,1698744355.470362,45.71540069580078,60.94915771484375,-49.48187255859375,275.4365539550781,272.8382568359375,14.6505012512207,188489.1844715417,0.0330352783203125,-0.289093017578125,-1.004852294921875,188489.1596395417,-0.0212541557848453,0.0246696602553129,0.0217332579195499,188489.1612225417,169.6457824707031,-608.5637817382812,-769.7587890625,188489.1683305417,-0.0978564535969988,0.0187148473890416,0.3419994787926557,-0.0218095313757658,0.0052182674407958,-0.0167279932647943,-0.008718829602003,-0.013047844171524,-0.0539438128471374,2,0.1704074610931914,0.0008874667584112,-0.0466028635160601,0.9842707503863336,0.0176299661397934,-0.3353714346885681,-0.9419209957122804,45.55893707275391,60.71954345703125,-49.57537841796875,-1,0,0,0,0,0,0,0,0,0,0,0,0,0,0,188486.229651,0,0.1981735,100.5057,1698744165.020515,0,1684768783,0,0,1,1698744204.10396,1,0.88,0
1698744357.263168,3241,1698744356.997061,62.44631474424944,5.926342805569648,-6.343393,0.1235636,5.350475,328.2306469622321,180.0,3.487340467900125,4.654352102466569,-9999,1698744357.258206,44.88951873779297,60.02899169921875,-50.01220703125,275.0781860351562,272.4798889160156,14.65214252471924,188490.9723311667,0.041473388671875,-0.35980224609375,-0.9554443359375,188490.9474991667,-0.0452628210186958,0.0238989405333995,0.0053367083892226,188490.9698611667,169.1058807373047,-609.1563720703125,-770.2698974609375,188490.9561901667,-0.087450138774255,-0.0056744815511718,0.3676770819179059,-0.0401296466588974,0.0724663138389587,-0.0065794773399829,-0.0107112694531679,-0.0216090381145477,0.0046220421791076,2,0.1825073718612754,-0.0107773319762989,-0.0434925608052734,0.9821829853929088,-0.0052951984107494,-0.3594487309455872,-0.9331498146057128,44.71385955810547,59.79730224609375,-50.17279052734375,-1,0,0,0,0,0,0,0,0,0,0,0,0,0,0,188488.231167,0,0.6103745,100.5008,1698744165.020515,0,1684768783,0,0,1,1698744204.10396,1,0.88,0
1698744359.051036,3271,1698744357.997048,62.44631456046302,5.926346253604776,-6.040847,0.1488018,4.582321,328.2306509085862,180.0,3.494740320153535,4.648798460622057,-9999,1698744359.045951,47.39545440673828,67.72564697265625,-55.44287109375,274.8929748535156,272.294677734375,14.65479946136475,188492.7601810417,-0.0148773193359375,-0.211578369140625,-0.9740753173828124,188492.7353500417,-0.1108431592583656,-0.0007462177309207,0.0124638602137565,188492.7483980417,171.4757995605469,-601.440673828125,-775.617919921875,188492.7440400417,-0.0850960035241249,-0.0026934958476993,0.2412857195095263,-0.0820895582437515,0.001295474357903,0.0013406169600784,0.0096497694030404,0.0199723690748214,-0.0146286487579345,2,0.1201845054396674,-0.0064548667168577,-0.0423878880900921,0.9918253629675156,-0.002615466248244,-0.2389512956142426,-0.9710280299186708,47.44528961181641,67.60107421875,-55.52764892578125,-1,0,0,0,0,0,0,0,0,0,0,0,0,0,0,188489.231382,0,0.8640366,100.4977,1698744165.020515,0,1684768783,0,0,1,1698744204.10396,1,0.88,0
1698744360.838833,3301,1698744359.997026,62.44632153938797,5.926351465837162,-5.493349,0.2104769,3.717868,328.2306595726225,180.0,3.494095758716179,4.649282940595297,-9999,1698744360.833817,50.54276275634766,77.05047607421875,-60.639404296875,274.6983947753906,272.10009765625,14.66075325012207,188494.5480314167,0.0216064453125,-0.0773162841796875,-1.0050048828125,188494.5232004167,0.0070983893238008,0.0316665843129158,0.0137629499658942,188494.5269224167,174.8401336669922,-591.9461669921875,-780.9156494140625,188494.5318904167,-0.0821178448924517,0.0201999633191974,0.0879738528997186,-0.0633449554443359,0.0291858240962028,0.0069797402247786,-0.0003145653754472,0.0280611813068389,-0.0091820955276489,2,0.0443476078760519,0.0082766622829239,-0.0405618460271675,0.9981581531808428,0.0201204773038625,-0.08786042034626,-0.9959295988082886,50.64739227294922,77.1661376953125,-60.6666259765625,-1,0,0,0,0,0,0,0,0,0,0,0,0,0,0,188491.232537,0,1.381935,100.4916,1698744165.020515,0,1684768783,0,0,1,1698744204.10396,1,0.88,0
1698744362.626775,3331,1698744361.997005,62.44632109710535,5.926355307824857,-6.406016,0.09188876,3.382812,328.2306638815475,180.0,3.496140359919783,4.647745648863415,-9999,1698744362.62161,50.94794464111328,77.57684326171875,-61.81256103515625,274.0279235839844,271.4296264648438,14.68426513671875,188496.33588025,-0.0133514404296875,-0.0255279541015625,-1.023284912109375,188496.31104925,0.0036775590851902,-0.0421376004815101,0.0003701793903019,188496.30547725,174.9072723388672,-591.3816528320312,-781.372314453125,188496.31973925,-0.0703678311967933,0.0161559606775495,0.0539517135818966,0.0269535221159458,-0.0624918639659881,-0.0105132861062884,0.0187193248420953,0.0409860536456108,-0.0514968037605285,2,0.0272390613463089,0.0071211813847499,-0.0349449632362418,0.9989926209470242,0.0161317512392997,-0.0539255440235137,-0.9984146356582642,50.79390716552734,77.52410888671875,-61.7169189453125,-1,0,0,0,0,0,0,0,0,0,0,0,0,0,0,188493.233684,0,1.923607,100.4851,1698744165.020515,0,1684768783,0,0,1,1698744204.10396,1,0.88,0
1698744364.414586,3361,1698744363.996983,62.4463152572096,5.926356610664862,-5.776598,0.1441666,3.756186,328.2306632268576,180.0,3.497928473562575,4.64640005021404,-9999,1698744364.409529,50.49333953857422,80.25048828125,-63.89923095703125,274.2316284179688,271.6333312988281,14.68852043151855,188498.12372475,-0.020751953125,-0.057586669921875,-0.9716033935546876,188498.09889375,-0.0901152417063713,-0.0231252927333116,-0.0296199433505535,188498.11407575,174.7063140869141,-588.958984375,-784.1652221679688,188498.10758375,-0.0740426004805892,-0.0141408024672661,0.0312971929291733,-0.0927631705999374,0.0327940881252288,-0.0014806413091719,0.0151252280920743,-0.0383032858371734,0.0184533596038818,2,0.0153751817805226,-0.0076437925790803,-0.0371179439043195,0.9991634748907436,-0.0141334068030118,-0.0312920846045017,-0.9994103312492372,50.20981597900391,80.23443603515625,-63.75531005859375,-1,0,0,0,0,0,0,0,0,0,0,0,0,0,0,188495.23484,0,2.132347,100.4826,1698744165.020515,0,1684768783,0,0,1,1698744204.10396,1,0.88,0
1698744366.202371,3391,1698744365.996962,62.44631644411334,5.926361594499384,-4.64091,0.3316348,4.003578,328.2306694711198,180.0,3.499597547269377,4.645143059146294,-9999,1698744366.197324,54.06584930419922,90.42779541015624,-65.48663330078125,273.4393005371094,270.8410034179688,14.69422626495361,188499.91156825,0.0465545654296875,0.209503173828125,-1.041107177734375,188499.88673725,-0.1298360228538513,0.0513577312231063,0.0256648827344179,188499.89249225,178.4386444091797,-579.3351440429688,-786.37451171875,188499.89542725,-0.0601770244144783,0.016664692296392,-0.1299468521096929,-0.0682118162512779,0.0421050041913986,0.028625501319766,-0.0139599442481994,0.0605583041906356,-0.0275508165359497,2,-0.0646459397014711,0.0102641204715172,-0.0305602002499454,0.9973874341944036,0.0165234245359897,0.1295814365148544,-0.9914311170578004,54.15740203857422,89.8763427734375,-66.01324462890625,-1,0,0,0,0,0,0,0,0,0,0,0,0,0,0,188497.235987,0,2.452072,100.4788,1698744165.020515,0,1684768783,0,0,1,1698744204.10396,1,0.88,0
1698744367.990129,3421,1698744366.99695,62.44632081297727,5.92635471748725,-5.400091,0.2869226,3.680743,328.2306630885348,180.0,3.501113672375823,4.644000439910823,-9999,1698744367.985159,55.09540557861328,94.83233642578124,-66.47509765625,273.3199462890625,270.7216491699219,14.7119779586792,188501.69940825,0.0617218017578125,0.25274658203125,-0.9919586181640624,188501.67457725,0.0203084666281938,0.0189864747226238,0.0333254672586917,188501.67086525,179.0833435058594,-574.2911987304688,-786.5697631835938,188501.68326825,-0.0545130074633325,0.0308815236037379,-0.2155418156063534,0.0235999468713998,0.0300630033016204,0.0176120996475219,-0.0242875106632709,0.0332088321447372,0.0048372745513916,2,-0.1070912762919692,0.0182759277738453,-0.0287519443050899,0.9936654434929476,0.0301621500402689,0.2138767391443253,-0.9763948917388916,55.21590423583984,94.9249267578125,-66.66156005859375,-1,0,0,0,0,0,0,0,0,0,0,0,0,0,0,188498.236562,0,2.687241,100.476,1698744165.020515,0,1684768783,0,0,1,1698744204.10396,1,0.88,0
