loggingTime,loggingSample,locationTimestamp_since1970,locationLatitude,locationLongitude,locationAltitude,locationSpeed,locationSpeedAccuracy,locationCourse,locationCourseAccuracy,locationVerticalAccuracy,locationHorizontalAccuracy,locationFloor,locationHeadingTimestamp_since1970,locationHeadingX,locationHeadingY,locationHeadingZ,locationTrueHeading,locationMagneticHeading,locationHeadingAccuracy,accelerometerTimestamp_sinceReboot,accelerometerAccelerationX,accelerometerAccelerationY,accelerometerAccelerationZ,gyroTimestamp_sinceReboot,gyroRotationX,gyroRotationY,gyroRotationZ,magnetometerTimestamp_sinceReboot,magnetometerX,magnetometerY,magnetometerZ,motionTimestamp_sinceReboot,motionYaw,motionRoll,motionPitch,motionRotationRateX,motionRotationRateY,motionRotationRateZ,motionUserAccelerationX,motionUserAccelerationY,motionUserAccelerationZ,motionAttitudeReferenceFrame,motionQuaternionX,motionQuaternionY,motionQuaternionZ,motionQuaternionW,motionGravityX,motionGravityY,motionGravityZ,motionMagneticFieldX,motionMagneticFieldY,motionMagneticFieldZ,motionHeading,motionMagneticFieldCalibrationAccuracy,activityTimestamp_sinceReboot,activity,activityActivityConfidence,activityActivityStartDate,pedometerStartDate,pedometerNumberofSteps,pedometerAverageActivePace,pedometerCurrentPace,pedometerCurrentCadence,pedometerDistance,pedometerFloorAscended,pedometerFloorDescended,pedometerEndDate,altimeterTimestamp_sinceReboot,altimeterReset,altimeterRelativeAltitude,altimeterPressure,IP_Timestamp_since1970,IP_en0,IP_pdp_ip0,deviceID,deviceOrientationTimeStamp_since1970,deviceOrientation,batteryTimeStamp_since1970,batteryState,batteryLevel,label
1698758231.808045,1,1698758231.186496,62.52388115972774,6.264099314587528,-10.05839,0.0,0.642366,-1.0,-1.0,21.27500916530035,9.738499813155784,-9999,1698758231.79567,109.9683227539062,-552.6874389648438,-385.2789001464844,178.1911773681641,175.5381927490234,14.43131065368652,199821.4204244167,0.0086212158203125,-0.9702301025390624,-0.2154083251953125,199821.3918564167,-0.0367803834378719,0.0970738157629966,0.0792218521237373,199821.4207064167,133.3318481445312,-645.1217041015625,-656.5257568359375,199821.3806774167,1.44737912843568,0.1988527375489933,1.324838207298998,-0.0649298951029777,-0.0266899690032005,-0.0640972927212715,-0.0020178891718387,-0.00723797082901,0.0009102970361709,2,0.4067783090041727,0.463883019005691,0.5652825232973518,0.5475397101050208,0.0480994097888469,-0.9699044823646544,-0.2386879026889801,110.0360870361328,-552.4522094726562,-384.7606506347656,-1,2,0,0,0,0,0,0,0,0,0,0,0,0,0,199819.05192,0,4.317551,100.4565,0.0,0,0,0,0,1,1698758231.801021,1,0.75,0
1698758232.799077,31,1698758232.186612,62.52388115972774,6.264099314587528,-10.05839,0.0,0.5236148,-1.0,-1.0,21.96573900474994,9.417926659489606,-9999,1698758232.789458,109.8211517333984,-552.6251220703125,-384.9101867675781,178.3735961914062,175.7206115722656,14.43195629119873,199822.4265065,0.0435028076171875,-0.98114013671875,-0.240966796875,199822.3979395,0.0006942860782146,0.0085900258272886,0.04379728063941,199822.4160755,133.1963806152344,-644.9805908203125,-655.9246826171875,199822.3942125,1.442006764372883,0.2023936531819572,1.325554678108321,0.0014081064146012,-0.0126614598557353,0.0381491743028163,0.0044790580868721,-0.0122365355491638,-0.0096620321273803,2,0.4072498375123015,0.4639287166590289,0.5644078829246992,0.5480525619881728,0.0488046072423458,-0.970078706741333,-0.2378354370594025,109.7496185302734,-552.9376831054688,-384.9022521972656,-1,2,0,0,0,0,0,0,0,0,0,0,0,0,0,199819.642898,0,4.288483,100.4569,1698758231.829108,0,1685690884,0,0,1,1698758231.801021,1,0.75,0
1698758233.802615,61,1698758233.18659,62.52388115972774,6.264099314587528,-10.05839,0.0,0.502944,-1.0,-1.0,22.89508062764178,9.18515855913948,-9999,1698758233.783032,110.2062377929688,-552.6316528320312,-385.3365173339844,178.4746246337891,175.8216400146484,14.43299102783203,199823.43259,0.0613861083984375,-0.9723358154296876,-0.2467803955078125,199823.404022,-0.0023728765081614,0.0160186477005481,0.0060395165346562,199823.411435,133.5144195556641,-645.0416259765625,-656.55810546875,199823.407748,1.436238323149737,0.2069455329247019,1.326365575512758,0.0001795585267245,0.0324898213148117,0.0128874536603689,0.0145143829286098,0.0014488101005554,-0.0100917816162109,2,0.4075605235646291,0.4641916538123052,0.5636148172497937,0.5484150556143683,0.0497250817716121,-0.9702752232551576,-0.2368410527706146,110.1879272460938,-552.5502319335938,-385.1897888183594,-1,2,0,0,0,0,0,0,0,0,0,0,0,0,0,199820.643474,0,4.288483,100.4569,1698758231.829108,0,1685690884,0,0,1,1698758231.801021,1,0.75,0
1698758234.811408,91,1698758234.186592,62.52388115972774,6.264099314587528,-10.05839,0.0,0.4169514,-1.0,-1.0,25.93789828551872,9.842382018183024,-9999,1698758234.796456,110.0144195556641,-552.728271484375,-384.6623840332031,178.4536285400391,175.8006439208984,14.4334774017334,199824.43867275,0.037933349609375,-0.9901580810546876,-0.2334747314453125,199824.41010475,0.0021073594689369,0.0353188402950763,-0.0186578407883644,199824.43688875,133.4382934570312,-645.2008056640625,-655.7460327148438,199824.42128375,1.438425548539504,0.204906924504176,1.326758312438764,0.0014769085682928,-0.0166249312460422,-0.0112585481256246,-0.0173957683145999,0.0098446011543273,0.0052148252725601,2,0.407751459670694,0.4641707753407525,0.5637317391874562,0.5481704653906558,0.0491645410656929,-0.9703702330589294,-0.2365684807300568,109.7967987060547,-552.8198852539062,-384.8021545410156,-1,2,0,0,0,0,0,0,0,0,0,0,0,0,0,199821.644043,0,4.256775,100.4573,1698758231.829108,0,1685690884,0,0,1,1698758231.801021,1,0.75,0
1698758235.815252,121,1698758235.13713,62.52388115972774,6.264099314587528,-10.05839,0.0,0.4428701,-1.0,-1.0,20.17875476531399,7.233072527835753,-9999,1698758235.810302,110.0478668212891,-553.8871459960938,-385.8995056152344,178.2511596679688,175.5981750488281,14.43397045135498,199825.444758625,0.052337646484375,-0.9729461669921876,-0.2493133544921875,199825.416190625,-0.0201478786766529,-0.0130553478375077,0.0578531809151172,199825.432212625,133.2920532226562,-646.2866821289062,-657.1873779296875,199825.434821625,1.451535196119468,0.1934082686681765,1.321844163834671,-0.0176303386688232,-0.0051731700077652,0.0307248625904321,-0.0210205130279064,0.009255826473236,0.0114943385124206,2,0.4064156245052029,0.4625243435318315,0.5658346166277053,0.5483875775160777,0.0473571494221687,-0.969171106815338,-0.2417951375246048,110.0478668212891,-553.8871459960938,-385.8995056152344,-1,2,0,0,0,0,0,0,0,0,0,0,0,0,0,199822.644622,0,4.230354,100.4576,1698758231.829108,0,1685690884,0,0,1,1698758231.801021,1,0.75,0
1698758236.82338,151,1698758236.086248,62.52388115972774,6.264099314587528,-10.05839,0.0,0.3931905,-1.0,-1.0,32.17408373797156,11.10910333584983,-9999,1698758236.819386,110.1655731201172,-552.4297485351562,-384.6189880371094,178.1427917480469,175.4898071289062,14.4346981048584,199826.4508467917,0.0420989990234375,-0.9781341552734376,-0.24090576171875,199826.4222787917,-0.0057540256530046,0.0302652269601821,-0.0018607506062835,199826.4275337917,133.3916625976562,-644.8248291015625,-655.6798095703125,199826.4483617917,1.448023709812026,0.2001683705604875,1.324667449826308,-0.0156856402754783,0.0082636317238211,0.0037534828297793,-0.0024107135832309,-0.0166943669319152,-0.0071995556354522,2,0.4062030909628491,0.4643332987345923,0.5657558374304222,0.5470962087341322,0.0484464354813098,-0.9698628783226012,-0.2387872785329819,110.1914520263672,-552.39111328125,-384.5435485839844,-1,2,0,0,0,0,0,0,0,0,0,0,0,0,0,199823.645203,0,4.211853,100.4578,1698758231.829108,0,1685690884,0,0,1,1698758231.801021,1,0.75,0
1698758237.830184,181,1698758237.036248,62.52388115972774,6.264099314587528,-10.05839,0.0,0.4451543,-1.0,-1.0,21.16107967524626,7.27756196284234,-9999,1698758237.817162,109.5664520263672,-552.2977905273438,-384.2452087402344,177.9737701416016,175.3207855224609,14.43573093414307,199827.45693225,0.0445556640625,-0.973663330078125,-0.2380828857421875,199827.42836525,-0.0021241372451186,0.0125480163842439,-0.0034522556234151,199827.43001025,132.8055114746094,-644.6163330078125,-655.2713623046875,199827.40228125,1.450924770116207,0.199929991193908,1.325340427146075,0.0011009437730535,0.0130339749157428,-0.0087134046480059,-0.0034752637147903,0.0014748573303222,-0.0010380148887634,2,0.4058078541615391,0.4650168404246021,0.5663836982388594,0.5461583882896035,0.0482597909867763,-0.970026671886444,-0.238158643245697,109.5430755615234,-552.1820068359375,-384.2008972167969,-1,2,0,0,0,0,0,0,0,0,0,0,0,0,0,199824.645776,0,4.203926,100.4579,1698758231.829108,0,1685690884,0,0,1,1698758231.801021,1,0.75,0
1698758238.834396,211,1698758237.986883,62.52388115972774,6.264099314587528,-10.05839,0.0,0.5737897,-1.0,-1.0,23.99461515847152,7.720969601291811,-9999,1698758238.829438,109.6864624023438,-552.7615356445312,-383.8177795410156,177.6877288818359,175.0347442626953,14.43619918823242,199828.463021125,0.034759521484375,-0.962432861328125,-0.2303314208984375,199828.434453125,-0.0105069689452648,0.0112915365025401,-0.0021582257468253,199828.433208125,132.9940032958984,-645.2010498046875,-655.0219116210938,199828.415821125,1.459984823432193,0.1941688240485402,1.325943091825603,0.0012641511857509,0.0075134066864848,0.0035864929668605,-0.0048888213932514,0.001056432723999,0.0008905231952667,2,0.4055222756229458,0.4654266518558671,0.567580802399274,0.5447770379508038,0.0467741899192333,-0.9701729416847228,-0.2378594279289246,109.8190612792969,-552.919189453125,-384.2041931152344,-1,2,0,0,0,0,0,0,0,0,0,0,0,0,0,199825.646352,0,4.203926,100.4579,1698758231.829108,0,1685690884,0,0,1,1698758231.801021,1,0.75,0
1698758239.837969,241,1698758238.974096,62.52388115972774,6.264099314587528,-10.05839,0.0,0.5051178,-1.0,-1.0,39.8290463038502,12.7539312090898,-9999,1698758239.823163,109.4200897216797,-552.7440185546875,-385.0118103027344,177.4323883056641,174.7794036865234,14.43666839599609,199829.4691102917,0.0380859375,-0.976806640625,-0.2384796142578125,199829.4405422917,-0.0050221891142427,0.02393489331007,0.0047244476154446,199829.4682142917,133.0212097167969,-644.8042602539062,-656.083984375,199829.4293642917,1.460914421789592,0.1991208036285757,1.324959933298844,-0.0070914318785071,0.0060343882068991,0.0056918361224234,-0.0002733021974563,-0.0062319040298461,-0.0045127570629119,2,0.4035914266658625,0.4667270299187775,0.5690078609275895,0.5436084444293777,0.0481401197612285,-0.969934105873108,-0.238559678196907,109.455322265625,-552.7110595703125,-384.9445495605469,-1,2,0,0,0,0,0,0,0,0,0,0,0,0,0,199826.646929,0,4.230354,100.4576,1698758231.829108,0,1685690884,0,0,1,1698758231.801021,1,0.75,0
1698758240.844253,271,1698758239.974095,62.52388115972774,6.264099314587528,-10.05839,0.0,0.426644,-1.0,-1.0,35.67085566352525,11.27318455854131,-9999,1698758240.836665,109.6017761230469,-552.7208251953125,-385.4720153808594,177.1322479248047,174.4792633056641,14.43733978271484,199830.4752014167,0.051513671875,-0.9817352294921876,-0.2359161376953125,199830.4466334167,0.0068419273011386,0.019082348793745,0.0046376287937164,199830.4569504167,132.8656616210938,-645.179931640625,-656.640869140625,199830.4429064167,1.462465322300355,0.2037665744299942,1.324452877958639,0.0011093352222815,0.0043622683733701,-0.0026973583735525,9.104609489440918e-05,-0.009285032749176,-0.0090027451515197,2,0.4017469553869607,0.4681792371516109,0.5704527800886977,0.5422098250060428,0.0493474304676055,-0.9698106050491332,-0.2388151735067368,109.6082458496094,-552.4949951171875,-385.4046936035156,-1,2,0,0,0,0,0,0,0,0,0,0,0,0,0,199827.647504,0,4.272629,100.4571,1698758231.829108,0,1685690884,0,0,1,1698758231.801021,1,0.75,0
1698758241.850513,301,1698758240.97392,62.52388115972774,6.264099314587528,-10.05839,0.0,0.4126004,-1.0,-1.0,27.94306252502251,8.57822965954422,-9999,1698758241.830527,109.6880187988281,-552.4360961914062,-385.3148498535156,176.7632598876953,174.1102752685547,14.4380054473877,199831.4812909167,0.051239013671875,-0.9779510498046876,-0.2422332763671875,199831.4527229167,-0.0035558526869863,0.0213681384921073,0.0088744517415761,199831.4601419167,132.9983215332031,-644.83056640625,-656.4302368164062,199831.4564499167,1.473937330660096,0.1977979604533544,1.3231940707293,0.0109500875696539,0.0052158087491989,0.0050726602785289,-0.0039714910089969,0.0008442997932434,-0.0056851357221603,2,0.4003732072912863,0.4685621172139487,0.5725825037718358,0.5406479490687437,0.0481609068810939,-0.969502866268158,-0.2403016686439514,109.6643371582031,-552.3936767578125,-385.4352111816406,-1,2,0,0,0,0,0,0,0,0,0,0,0,0,0,199828.648085,0,4.312263,100.4566,1698758231.829108,0,1685690884,0,0,1,1698758231.801021,1,0.75,0
1698758242.856296,331,1698758241.973465,62.52388115972774,6.264099314587528,-10.05839,0.0,0.4081407,-1.0,-1.0,36.17638235117919,10.9626023014483,-9999,1698758242.843849,109.4974670410156,-552.1859741210938,-385.0703430175781,176.5375823974609,173.8845977783203,14.43875694274902,199832.4873811667,0.0390167236328125,-0.9782562255859376,-0.2462158203125,199832.4588131667,0.0093668699264526,0.0224427245557308,-0.0064722802489995,199832.4633431667,132.8126525878906,-644.6417846679688,-656.0757446289062,199832.4699911667,1.480610195659583,0.1946822908506213,1.321279643732925,0.0142250629141926,-0.0030179684981703,0.0062451022677123,0.0048259906470775,0.0118020176887512,-0.0016858279705047,2,0.3991083201147871,0.4685901721217073,0.5741014773960607,0.5399477298828392,0.0477710478007793,-0.9690318703651428,-0.2422716021537781,109.561767578125,-552.1871337890625,-384.9104309082031,-1,2,0,0,0,0,0,0,0,0,0,0,0,0,0,199829.648658,0,4.357185,100.4561,1698758231.829108,0,1685690884,0,0,1,1698758231.801021,1,0.75,0
1698758243.862186,361,1698758242.973463,62.52388115972774,6.264099314587528,-10.05839,0.0,0.3079722,-1.0,-1.0,31.01445765297723,9.957949797836436,-9999,1698758243.857541,109.6007232666016,-552.2185668945312,-384.6675720214844,176.5205230712891,173.8675384521484,14.43950176239014,199833.4934716667,0.052032470703125,-0.9799346923828124,-0.2481689453125,199833.4649036667,-0.0078667113557457,0.0214914437383413,-0.0100148171186447,199833.4665186667,133.0013885498047,-644.6292114257812,-655.7069702148438,199833.4835346667,1.476708835763858,0.2006327309579481,1.319113595740371,-0.011948431842029,-0.0027024783194065,-0.0047823097556829,0.000495072454214,-0.0064811110496521,-0.0006657540798187,2,0.397640621014646,0.4688946977318298,0.574616106242576,0.540218758097024,0.0496300123631954,-0.968494713306427,-0.2440394014120102,109.7217254638672,-552.3299560546875,-384.6466369628906,-1,2,0,0,0,0,0,0,0,0,0,0,0,0,0,199830.649228,0,4.375679,100.4558,1698758231.829108,0,1685690884,0,0,1,1698758231.801021,1,0.75,0
1698758244.876857,391,1698758243.97396,62.52388115972774,6.264099314587528,-10.05839,0.0,0.3079722,-1.0,-1.0,26.4328616792983,8.56098292608619,-9999,1698758244.870899,109.4654693603516,-552.6756591796875,-384.7328796386719,176.5333862304688,173.8804016113281,14.44037055969238,199834.4995619167,0.053680419921875,-0.97686767578125,-0.25079345703125,199834.4709939167,0.0025928535033017,0.0107210874557495,0.0114105800166726,199834.4932459167,132.7269134521484,-644.9375610351562,-655.8927001953125,199834.4970779167,1.472111506697965,0.2061519173792802,1.319340856197139,0.0058644227683544,-0.0100683383643627,0.0059132929891347,0.0019253678619861,-0.0063939094543457,-0.0016778707504272,2,0.3972046009300872,0.4695268784028347,0.5744312919433591,0.5401868994581877,0.0509310327470302,-0.9685512781143188,-0.2435460239648819,109.4654693603516,-552.6756591796875,-384.7328796386719,-1,2,0,0,0,0,0,0,0,0,0,0,0,0,0,199831.649806,0,4.375679,100.4558,1698758231.829108,0,1685690884,0,0,1,1698758231.801021,1,0.75,0
1698758245.875771,421,1698758244.973491,62.52388115972774,6.264099314587528,-10.05839,0.0,0.3079722,-1.0,-1.0,20.75962330850089,6.791702668510842,-9999,1698758245.866301,109.4033813476562,-552.4237060546875,-384.8611145019531,176.4712066650391,173.8182220458984,14.44127941131592,199835.5056516667,0.0421905517578125,-0.971405029296875,-0.2429046630859375,199835.4770836667,-0.0075420723296701,0.0192424040287733,0.0058893142268061,199835.4887226667,132.7369689941406,-644.8150634765625,-655.9187622070312,199835.4509996667,1.480304679142786,0.1972053487498328,1.318645492174312,0.0016605728305876,0.0041844584047794,-0.0027019698172807,-0.0091634877026081,0.0047396421432495,0.0018393993377685,2,0.3976372879928153,0.4685705598113952,0.5749884234519081,0.5401062400705057,0.0488820932805538,-0.9683780670166016,-0.2446524351835251,109.5971832275391,-552.4607543945312,-384.7442321777344,-1,2,0,0,0,0,0,0,0,0,0,0,0,0,0,199832.650386,0,4.354538,100.4561,1698758231.829108,0,1685690884,0,0,1,1698758231.801021,1,0.75,0
1698758246.884409,451,1698758245.973489,62.52388115972774,6.264099314587528,-10.05839,0.0,0.3079722,-1.0,-1.0,25.37579772357969,8.46410907331233,-9999,1698758246.879946,109.4560852050781,-552.6696166992188,-385.0665588378906,176.6111297607422,173.9581451416016,14.44218444824219,199836.5117435,0.044189453125,-0.972991943359375,-0.245086669921875,199836.4831755,-0.0004364920896477,0.0187260173261165,0.0069950590841472,199836.5142175,132.9889678955078,-645.1277465820312,-656.74609375,199836.4645435,1.47431045820659,0.2017307617535803,1.317615104070055,-0.0015311974566429,0.0047658439725637,-0.0027339169755578,-0.0054040998220443,-0.0048716068267822,0.0018301010131835,2,0.3974200955283465,0.4683526897669655,0.5744491632924071,0.5410280663655531,0.0501886159181594,-0.9681204557418824,-0.2454060465097427,109.7593841552734,-552.6502685546875,-385.1625061035156,-1,2,0,0,0,0,0,0,0,0,0,0,0,0,0,199833.650962,0,4.354538,100.4561,1698758231.829108,0,1685690884,0,0,1,1698758231.801021,1,0.75,0
1698758247.887997,481,1698758246.973486,62.52388115972774,6.264099314587528,-10.05839,0.0,0.3079722,-1.0,-1.0,32.63947119337799,10.82315068524742,-9999,1698758247.873419,109.6952362060547,-552.3775024414062,-385.0172424316406,176.7230224609375,174.0700378417969,14.44309616088867,199837.5178356667,0.0503082275390625,-0.973907470703125,-0.24298095703125,199837.4892676667,-0.0019936424214392,0.0129530830308795,0.0061119548045098,199837.5095396667,133.4137878417969,-644.939697265625,-655.823486328125,199837.4780886667,1.469304052340821,0.2054869938854791,1.319194783240078,0.0025269330944865,0.0062278667464852,-0.0029971161857247,-0.0058913491666316,-0.0088258981704711,-0.0016581416130065,2,0.3980083206488093,0.4687538759586803,0.5735655959057024,0.5411856188898253,0.0507979542016983,-0.9685149788856506,-0.2437183558940887,109.8690032958984,-552.565673828125,-385.0954284667969,-1,2,0,0,0,0,0,0,0,0,0,0,0,0,0,199834.651535,0,4.362465,100.456,1698758231.829108,0,1685690884,0,0,1,1698758231.801021,1,0.75,0
1698758248.896518,511,1698758247.973484,62.52388799497763,6.264241814339308,-4.711446,0.0,0.2836432,339.4382190070882,180.0,3.473394690834279,4.664768628182226,-9999,1698758248.886869,109.6669158935547,-552.8545532226562,-385.1750793457031,176.8238220214844,174.1708374023438,14.44444370269775,199838.5239289167,0.0511627197265625,-0.9738922119140624,-0.2484130859375,199838.4953609167,-0.0063985106535255,0.0333917774260044,-0.0062570967711508,199838.5049289167,133.0237426757812,-645.2215576171875,-656.0726928710938,199838.4916349167,1.471359505052606,0.2007448698264394,1.318300222795272,-0.0062154326587915,0.0154185174033045,-0.0107649704441428,-0.0065557435154914,0.0036463141441345,0.0014126300811767,2,0.3986073231975514,0.4676638405119811,0.5733340062755341,0.541932706996218,0.0498143956065177,-0.9682918787002563,-0.2448054701089859,109.7530212402344,-552.6151123046875,-384.7273864746094,-1,2,0,0,0,0,0,0,0,0,0,0,0,0,0,199835.652112,0,4.365112,100.456,1698758231.829108,0,1685690884,0,0,1,1698758231.801021,1,0.75,0
1698758249.899975,541,1698758248.97348,62.52388799497763,6.264241814339308,-4.711446,0.0,0.2836432,339.4382190070882,180.0,3.466137044468899,4.670163918081382,-9999,1698758249.880395,109.8822784423828,-553.0968017578125,-385.4261779785156,177.0436248779297,174.3906402587891,14.44537544250488,199839.5300229167,0.043853759765625,-0.970001220703125,-0.2450103759765625,199839.5014549167,-0.0106332032009959,0.0175116155296564,-0.0014993597287684,199839.5304559167,132.9677886962891,-645.5925903320312,-656.5380859375,199839.5051809167,1.464120453869099,0.2055382630121809,1.316771558417896,-0.0078444750979542,0.0056168567389249,-0.0106995664536953,-0.0085800029337406,0.0004861950874328,0.004740834236145,2,0.3984476313203797,0.4671542860890925,0.5725914207250927,0.5432731009267963,0.0512893237173557,-0.9679088592529296,-0.2460127174854279,109.796630859375,-553.0903930664062,-385.4975891113281,-1,2,0,0,0,0,0,0,0,0,0,0,0,0,0,199836.652689,0,4.370392,100.4559,1698758231.829108,0,1685690884,0,0,1,1698758231.801021,1,0.75,0
1698758250.910396,571,1698758249.973477,62.52388799497763,6.264241814339308,-4.711446,0.0,0.2836432,339.4382190070882,180.0,3.462242685239427,4.673051746053634,-9999,1698758250.894268,109.9886627197266,-553.3441772460938,-386.0037536621094,177.2560882568359,174.6031036376953,14.44634246826172,199840.5361190417,0.04400634765625,-0.970947265625,-0.2423248291015625,199840.5075510417,-0.0561394356191158,-0.0245016142725944,0.016253538429737,199840.5258480417,133.4394989013672,-645.77783203125,-657.677734375,199840.5187300417,1.46031254196952,0.2057815411489607,1.316028445986818,-0.0455465801060199,-0.009934939444065,-0.0008365488611161,0.0007805004715919,-0.00459885597229,-0.0025328993797302,2,0.3990333973499295,0.4662835353638443,0.5717329048592252,0.5444939486051079,0.0514960810542106,-0.9677218198776244,-0.246704027056694,109.9886627197266,-553.3441772460938,-386.0037536621094,-1,2,0,0,0,0,0,0,0,0,0,0,0,0,0,199837.653271,0,4.370392,100.4559,1698758231.829108,0,1685690884,0,0,1,1698758231.801021,1,0.75,0
1698758251.9122,601,1698758250.973474,62.52388799497763,6.264241814339308,-4.711446,0.0,0.2836432,339.4382190070882,180.0,3.457485066589927,4.676572895518308,-9999,1698758251.907566,109.7705078125,-552.326171875,-383.9327087402344,177.5746459960938,174.9216613769531,14.44743824005127,199841.5422082917,0.059112548828125,-0.9683380126953124,-0.243316650390625,199841.5136402917,-0.0055063520558178,0.022562300786376,0.0069045112468302,199841.5174282917,132.9930419921875,-644.760498046875,-655.2521362304688,199841.5322712917,1.446484713093497,0.2157142074068013,1.319840828243316,-0.0213356558233499,-0.0352301374077796,-0.0083020981401205,-0.0062330737709999,-0.0107098817825317,0.0061245709657669,2,0.4006284642928685,0.4671290205338137,0.5692990437847665,0.5451477052027083,0.0531538240611553,-0.9686756134033204,-0.242574617266655,109.7386016845703,-552.3826293945312,-384.0312805175781,-1,2,0,0,0,0,0,0,0,0,0,0,0,0,0,199838.653842,0,4.365112,100.456,1698758231.829108,0,1685690884,0,0,1,1698758231.801021,1,0.75,0
1698758252.920972,631,1698758251.97347,62.52388799497763,6.264241814339308,-4.711446,0.0,0.2836432,339.4382190070882,180.0,3.456628334993609,4.677206173188022,-9999,1698758252.901408,109.6040344238281,-552.7490234375,-384.4720153808594,178.0375518798828,175.3845672607422,14.44873046875,199842.548300125,0.055511474609375,-0.9659271240234376,-0.244110107421875,199842.519732125,-0.0529015623033046,0.0805054977536201,-0.0747818276286125,199842.550956125,133.080810546875,-644.9552612304688,-655.4335327148438,199842.545816125,1.424567235614993,0.2289694327809834,1.323457904335918,0.0563809350132942,-0.1471224874258041,-0.1019658297300339,0.0288884937763214,0.0328302979469299,-0.0156998634338378,2,0.4031377820565114,0.467185550094058,0.565370125783913,0.5473339228810906,0.0555688813328743,-0.9695674777030944,-0.2384351789951324,109.7370758056641,-552.6920166015625,-384.3398742675781,-1,2,0,0,0,0,0,0,0,0,0,0,0,0,0,199839.65442,0,4.328117,100.4564,1698758231.829108,0,1685690884,0,0,1,1698758231.801021,1,0.75,0
1698758253.924702,661,1698758252.973467,62.52388799497763,6.264241814339308,-4.711446,0.0,0.2836432,339.4382190070882,180.0,3.460376710939302,4.674433661009399,-9999,1698758253.914859,109.4620056152344,-552.2024536132812,-383.7340393066406,178.154052734375,175.5010681152344,14.4523458480835,199843.5543905,0.004974365234375,-1.018936157226562,-0.2103118896484375,199843.5258225,0.0883708745241165,0.1457755714654922,0.0794833749532699,199843.5540955,132.7896575927734,-644.3900756835938,-654.7431030273438,199843.4997385,1.436304840631116,0.2171389644488474,1.324228146478127,-0.0517435669898986,0.1371958702802658,-0.0519172698259353,-0.176408439874649,-0.0358595848083496,0.0972484946250915,2,0.4039895302810578,0.4664968034943766,0.5660642089812892,0.5465753923955012,0.0525833182036876,-0.96975576877594,-0.2383463829755783,109.6988983154297,-551.9420166015625,-383.4171447753906,-1,2,0,0,0,0,0,0,0,0,0,0,0,0,0,199840.654993,0,4.317551,100.4566,1698758231.829108,0,1685690884,0,0,1,1698758231.801021,1,0.75,0
1698758254.93322,691,1698758253.973463,62.52388799497763,6.264241814339308,-4.711446,0.0,0.2836432,339.4382190070882,180.0,3.453109859689375,4.679804411479701,-9999,1698758254.928513,110.0158386230469,-552.4776000976562,-384.2069396972656,178.0729370117188,175.4199523925781,14.4538106918335,199844.5604817917,0.0541839599609375,-0.9683074951171876,-0.23974609375,199844.5319137917,-0.0543697662651538,-0.0064299362711608,-0.0057050236500799,199844.5500417917,133.2530822753906,-644.9647216796875,-655.5581665039062,199844.5132817917,1.435677681212075,0.2170715035653175,1.324371239059636,0.0418443456292152,0.019884955137968,0.0092751160264015,0.0032029338181018,0.0164976119995117,7.078051567077637e-05,2,0.4042002790778949,0.4663848231015882,0.5658549685327805,0.5467318554802184,0.0525374077260494,-0.9697906970977784,-0.2382146567106247,110.0603790283203,-552.5548095703125,-384.2571105957031,-1,2,0,0,0,0,0,0,0,0,0,0,0,0,0,199841.65557,0,4.317551,100.4566,1698758231.829108,0,1685690884,0,0,1,1698758231.801021,1,0.75,0
1698758255.936844,721,1698758254.973459,62.52388799497763,6.264241814339308,-4.711446,0.0,0.2836432,339.4382190070882,180.0,3.445513623754733,4.685399972393965,-9999,1698758255.922141,109.8912048339844,-552.2385864257812,-384.1252746582031,177.9346313476562,175.2816467285156,14.45350551605225,199845.5665695,0.0479583740234375,-0.993621826171875,-0.235107421875,199845.5380015,-0.0132066160440444,0.023215040564537,0.012729643844068,199845.5453785,133.2422637939453,-644.7267456054688,-655.3890380859375,199845.5268235,1.441882017913208,0.2119096125517537,1.326070228582435,-0.0338074304163456,-0.0017962912097573,-0.0048471689224243,-0.0062827505171298,-0.0030936598777771,-0.0015315115451812,2,0.4047517611942946,0.4666263462326915,0.5662170908712341,0.5457420361961874,0.0509604960680007,-0.970203697681427,-0.2368717342615128,109.9541625976562,-552.1691284179688,-384.4685363769531,-1,2,0,0,0,0,0,0,0,0,0,0,0,0,0,199842.656142,0,4.336044,100.4563,1698758231.829108,0,1685690884,0,0,1,1698758231.801021,1,0.75,0
1698758256.94525,751,1698758255.973455,62.52388799497763,6.264241814339308,-4.711446,0.0,0.2836432,339.4382190070882,180.0,3.438247807417876,4.690734382543421,-9999,1698758256.935788,109.7416381835938,-552.0742797851562,-383.9264831542969,177.6991119384766,175.0461273193359,14.45367908477783,199846.5726564167,0.0329742431640625,-0.9630584716796876,-0.225799560546875,199846.5440884167,0.0167616698890924,0.0282971523702144,0.0086049400269985,199846.5709244167,132.9434509277344,-644.5077514648438,-655.1918334960938,199846.5403624167,1.449968213341315,0.2063390034465495,1.3288393903487,-0.0083200624212622,0.0198764726519584,-0.0014921808615326,-0.0143147185444831,0.0048826336860656,0.0011379122734069,2,0.4053137413928996,0.467397354785906,0.5668161398056415,0.544040544977105,0.0490894839167594,-0.9708709716796876,-0.2345209717750549,109.4226684570312,-552.3369140625,-383.8471984863281,-1,2,0,0,0,0,0,0,0,0,0,0,0,0,0,199843.65672,0,4.378319,100.4558,1698758231.829108,0,1685690884,0,0,1,1698758231.801021,1,0.75,0
1698758257.955811,781,1698758256.973451,62.52388799497763,6.264241814339308,-4.711446,0.0,0.2836432,339.4382190070882,180.0,3.43174730879168,4.695492246973676,-9999,1698758257.949285,109.6940155029297,-551.8084106445312,-383.7552185058594,177.4555053710938,174.8025207519531,14.45395755767822,199847.578742625,0.0444183349609375,-0.97393798828125,-0.226898193359375,199847.550174625,0.0169552806764841,0.0257671494036912,0.0042879558168351,199847.566217625,132.7308197021484,-644.1508178710938,-655.0844116210938,199847.553900625,1.450967114866275,0.2098931815051949,1.331247513390583,0.0054668188095092,0.004236158914864,0.0052135316655039,-0.003216553479433,-0.0005856156349182,0.000810757279396,2,0.404828465876672,0.469132311847607,0.5673907616389591,0.5423067814805334,0.049435406923294,-0.9714451432228088,-0.2320575714111328,109.8417205810547,-552.0736694335938,-383.8521423339844,-1,2,0,0,0,0,0,0,0,0,0,0,0,0,0,199844.657299,0,4.428528,100.4552,1698758231.829108,0,1685690884,0,0,1,1698758231.801021,1,0.75,0
1698758258.957554,811,1698758257.973447,62.52388799497763,6.264241814339308,-4.711446,0.0,0.2836432,339.4382190070882,180.0,3.429893831061309,4.696846318588294,-9999,1698758258.942841,109.9909515380859,-552.1707763671875,-383.9864807128906,177.1462249755859,174.4932403564453,14.45439338684082,199848.58482775,0.053985595703125,-0.97552490234375,-0.2356719970703125,199848.55625975,0.0038858184125274,0.000843689427711,0.023771908134222,199848.56156575,133.2411651611328,-644.3358764648438,-654.6280517578125,199848.56743875,1.453851295784715,0.2126480770193404,1.333308804130898,0.0086381481960415,0.005552657879889,0.019536405801773,0.0003511868417263,-0.0160745978355407,-0.0094169974327087,2,0.4040154864130817,0.4709459531177511,0.5683717570107418,0.5403101958982892,0.0496518164873123,-0.9719321131706238,-0.2299627959728241,109.8829193115234,-552.04931640625,-383.5329895019531,-1,2,0,0,0,0,0,0,0,0,0,0,0,0,0,199845.657874,0,4.447021,100.455,1698758231.829108,0,1685690884,0,0,1,1698758231.801021,1,0.75,0
1698758259.961059,841,1698758258.973443,62.52388799497763,6.264241814339308,-4.711446,0.0,0.2836432,339.4382190070882,180.0,3.42976018136909,4.696943913981079,-9999,1698758259.956355,109.901611328125,-552.1563110351562,-383.7065734863281,176.7891845703125,174.1361999511719,14.45514106750488,199849.59091125,0.0359649658203125,-0.9798583984375,-0.22991943359375,199849.56234325,-0.0354826264083385,0.0109855392947793,0.0541860051453113,199849.58696425,132.9980621337891,-644.690185546875,-655.2518920898438,199849.58097425,1.467163370973422,0.2037738820171702,1.33391325642808,0.0341658741235733,0.0131759205833077,-0.0408424139022827,-0.0059405900537967,-0.0006279945373535,-0.0005733966827392,2,0.4035940076582436,0.471383502111946,0.570064578685883,0.5384570562390186,0.0474902503192424,-0.9720741510391236,-0.2298189401626587,109.901611328125,-552.1563110351562,-383.7065734863281,-1,2,0,0,0,0,0,0,0,0,0,0,0,0,0,199846.658446,0,4.447021,100.455,1698758231.829108,0,1685690884,0,0,1,1698758231.801021,1,0.75,0
1698758260.969657,871,1698758259.973438,62.52388799497763,6.264241814339308,-4.711446,0.0,0.2836432,339.4382190070882,180.0,3.431113620938209,4.695955318463021,-9999,1698758260.950058,109.594482421875,-552.2178955078125,-383.4939880371094,176.3904113769531,173.7374267578125,14.4558687210083,199850.596995,0.0222015380859375,-0.97833251953125,-0.2317047119140625,199850.568428,-0.0134180709719657,0.0075239627622067,0.0142676187679171,199850.582148,132.7823638916016,-644.7675170898438,-654.1962280273438,199850.594511,1.479639090018613,0.1973742155224346,1.331613399098724,-0.0122827729210257,0.0183744132518768,-0.012980580329895,-0.0214019455015659,0.0222061872482299,0.0112407207489013,2,0.4017669363800164,0.4716231205070667,0.5725384343627812,0.536986876851921,0.046456828713417,-0.971531867980957,-0.2323099225759506,109.2826690673828,-552.2050170898438,-383.2856140136719,-1,2,0,0,0,0,0,0,0,0,0,0,0,0,0,199847.659024,0,4.436455,100.4551,1698758231.829108,0,1685690884,0,0,1,1698758231.801021,1,0.75,0
1698758261.973311,901,1698758260.973433,62.52388799497763,6.264241814339308,-4.711446,0.0,0.2836432,339.4382190070882,180.0,3.429002904536692,4.697496792278603,-9999,1698758261.963539,110.0200958251953,-551.9642333984375,-383.9286193847656,176.161865234375,173.5088806152344,14.45657730102539,199851.6030814167,0.054962158203125,-0.9617462158203124,-0.236907958984375,199851.5745134167,-0.0005581985460594,0.0001414138532709,0.0083830980584025,199851.5774314167,133.0771636962891,-644.1522216796875,-654.5065307617188,199851.5484294167,1.476916284149706,0.2061355118855572,1.328022420938057,0.001780375605449,0.0034061660990118,0.0079790838062763,0.0020806267857551,-0.021268606185913,-0.008527934551239,2,0.398783797516236,0.4725651002769652,0.574198406914873,0.536609838672856,0.049204122275114,-0.9706748723983764,-0.2353074103593826,109.9264373779297,-552.2764282226562,-383.9295349121094,-1,2,0,0,0,0,0,0,0,0,0,0,0,0,0,199848.659603,0,4.410027,100.4554,1698758231.829108,0,1685690884,0,0,1,1698758231.801021,1,0.75,0
1698758262.981943,931,1698758261.973429,62.52388799497763,6.264241814339308,-4.711446,0.0,0.3079722,-1.0,-1.0,3.42604469753147,4.699654749373121,-9999,1698758262.977144,109.6981353759766,-552.012939453125,-383.7916564941406,175.8314971923828,173.1785125732422,14.45749092102051,199852.6091585417,0.03656005859375,-0.9963836669921876,-0.2313232421875,199852.5805915417,-0.0310703013092279,-0.0024596955627202,0.0227636359632015,199852.6028395417,133.0359344482422,-644.3161010742188,-654.8077392578125,199852.5619595417,1.480591607285569,0.208468875785493,1.328180092950366,0.0386078543961048,0.0254235230386257,-0.0116744171828031,-0.0029683336615562,0.0053654313087463,-0.0067948400974273,2,0.3972923448386364,0.4739598994272546,0.5756196212457109,0.5349606348988358,0.0497212409973144,-0.9707127809524536,-0.235041618347168,109.7138519287109,-552.2466430664062,-383.7597351074219,-1,2,0,0,0,0,0,0,0,0,0,0,0,0,0,199849.660178,0,4.39946,100.4556,1698758231.829108,0,1685690884,0,0,1,1698758231.801021,1,0.75,0
1698758263.98545,961,1698758262.973424,62.52388799497763,6.264241814339308,-4.711446,0.0,0.3079722,-1.0,-1.0,3.422216963193855,4.702442778983819,-9999,1698758263.970708,109.7235717773438,-551.7371826171875,-383.9350891113281,175.4220275878906,172.76904296875,14.45840740203857,199853.6152385,0.052947998046875,-0.9790496826171876,-0.2365875244140625,199853.5866715,-0.0031132353469729,0.0469267629086971,0.0043958136811852,199853.5981445,133.0204620361328,-644.091796875,-655.0808715820312,199853.5754925,1.494767112001882,0.1994467438764745,1.329704164930203,0.0097263045608997,-0.0178582947701215,0.0145712336525321,0.0070920065045356,-0.0003120303153991,-0.010247379541397,2,0.3970024016006022,0.4747355786313715,0.5773398712738671,0.5326293095811436,0.0473055355250835,-0.971077799797058,-0.2340304404497147,109.8153533935547,-551.7846069335938,-383.9967956542969,-1,2,0,0,0,0,0,0,0,0,0,0,0,0,0,199850.660753,0,4.394173,100.4556,1698758231.829108,0,1685690884,0,0,1,1698758231.801021,1,0.75,0
1698758264.996114,991,1698758263.973419,62.52388799497763,6.264241814339308,-4.711446,0.0,0.3079722,-1.0,-1.0,3.418442977875535,4.705186993075013,-9999,1698758264.984245,109.4469757080078,-551.8264770507812,-383.8210754394531,175.1301727294922,172.4771881103516,14.45923614501953,199854.621315125,0.0194244384765625,-0.977996826171875,-0.2225341796875,199854.592747125,-0.0010604707058519,0.0450529605150222,0.0247918982058763,199854.623676125,132.7372589111328,-644.142822265625,-655.042236328125,199854.589021125,1.498352180527744,0.2016536927643632,1.329846766753903,0.0071093332953751,0.0274018384516239,0.0108250426128506,0.004497617483139,0.0045132040977478,-0.0077717304229736,2,0.3955563212002812,0.4760674027286723,0.57870479830545,0.5310329035235043,0.0477942265570163,-0.9711118340492249,-0.2337900549173355,109.7469177246094,-552.1348266601562,-383.8228454589844,-1,2,0,0,0,0,0,0,0,0,0,0,0,0,0,199851.661326,0,4.394173,100.4556,1698758231.829108,0,1685690884,0,0,1,1698758231.801021,1,0.75,0
1698758265.997657,1021,1698758264.973415,62.52388799497763,6.264241814339308,-4.711446,0.0,0.1760898,13.53327393226808,180.0,3.415980650933719,4.706974954812834,-9999,1698758265.977908,109.552734375,-552.0376586914062,-384.2026672363281,174.8767395019531,172.2237548828125,14.46008586883545,199855.6273902917,0.034912109375,-0.9699859619140624,-0.2405548095703125,199855.5988232917,-0.0119213741272687,0.0172093473374843,0.0084307687357068,199855.6190282917,132.7768402099609,-643.81201171875,-655.09375,199855.6025492917,1.501620256949302,0.2035516441244209,1.327367686374562,-0.0097362846136093,0.0004587555304169,0.0118780992925167,0.0046966783702373,-0.0044584274291992,-0.0011114329099655,2,0.3934648659316211,0.4766104365729306,0.5803923003708454,0.5302572746724485,0.0487243458628654,-0.9705172777175904,-0.23605577647686,109.552734375,-552.0376586914062,-384.2026672363281,-1,2,0,0,0,0,0,0,0,0,0,0,0,0,0,199852.661903,0,4.394173,100.4556,1698758231.829108,0,1685690884,0,0,1,1698758231.801021,1,0.75,0
1698758267.006113,1051,1698758265.97341,62.52388799497763,6.264241814339308,-4.711446,0.0,0.1760898,13.53327393226808,180.0,3.414696525613159,4.707906612365443,-9999,1698758266.991543,109.6988677978516,-552.1146850585938,-385.2680969238281,174.6383666992188,171.9853820800781,14.46102046966553,199856.633464625,0.026702880859375,-0.9694976806640624,-0.2338104248046875,199856.604896625,-0.0105133606120944,0.0179446451365947,0.0257370546460151,199856.614396625,133.0477752685547,-644.4564208984375,-656.5504760742188,199856.616075625,1.510919974731204,0.1979016750450378,1.323644327347696,-0.0018744603730738,-0.0217287093400955,-0.0015343772247433,0.0049395374953746,-0.0028143525123596,-0.0050043314695358,2,0.3917487426772259,0.4760237670848169,0.582420045569074,0.5298313490750542,0.0480999872088432,-0.9696130752563475,-0.2398685961961746,109.6988677978516,-552.1146850585938,-385.2680969238281,-1,2,0,0,0,0,0,0,0,0,0,0,0,0,0,199853.662477,0,4.351898,100.4561,1698758231.829108,0,1685690884,0,0,1,1698758231.801021,1,0.75,0
1698758268.009639,1081,1698758266.973405,62.52388799497763,6.264241814339308,-4.711446,0.0,0.3079722,-1.0,-1.0,3.414971651628343,4.707707048167252,-9999,1698758268.004976,109.7528228759766,-552.2186889648438,-384.4869079589844,174.5180358886719,171.8650512695312,14.46311187744141,199857.6395365,0.045623779296875,-0.965728759765625,-0.242095947265625,199857.6109695,-0.0012088088551536,0.0109988553449511,-0.0143214147537946,199857.6399105,133.1365509033203,-644.586181640625,-655.57470703125,199857.6296005,1.511590548062956,0.200155769473142,1.321553664413438,-0.006109501235187,-0.0039269672706723,0.0197138860821723,-0.0107440389692783,-0.0088974833488464,0.004456877708435,2,0.3902909421505257,0.4762351204246392,0.5834167213282158,0.5296208577072319,0.0490435808897018,-0.9690995216369628,-0.241746187210083,109.7528228759766,-552.2186889648438,-384.4869079589844,-1,2,0,0,0,0,0,0,0,0,0,0,0,0,0,199854.663051,0,4.277916,100.457,1698758231.829108,0,1685690884,0,0,1,1698758231.801021,1,0.75,0
1698758269.018277,1111,1698758267.9734,62.52388799497763,6.264241814339308,-4.711446,0.0,0.3079722,-1.0,-1.0,3.413954949411974,4.708444396631899,-9999,1698758268.998699,109.4387664794922,-552.3446655273438,-384.8898620605469,174.4206085205078,171.7676239013672,14.46352481842041,199858.6456075417,0.0432586669921875,-0.9763641357421876,-0.245147705078125,199858.6170405417,0.0009792443597689,0.0153858801349997,0.0023353260476142,199858.6352165417,132.7816619873047,-644.4747314453125,-655.6546020507812,199858.6431235417,1.511571506050505,0.2026655982239159,1.320588288926384,0.0005016318755224,0.0048579946160316,0.0052593215368688,-0.0077088847756385,-0.0095327496528625,-0.0077667832374572,2,0.389266511271465,0.4766575589441024,0.5840750438119765,0.5292689586351246,0.0498383902013301,-0.968860924243927,-0.2425383031368256,109.4688110351562,-552.1676025390625,-384.6047668457031,-1,2,0,0,0,0,0,0,0,0,0,0,0,0,0,199855.663628,0,4.248848,100.4574,1698758231.829108,0,1685690884,0,0,1,1698758231.801021,1,0.75,0
1698758270.021912,1141,1698758268.973395,62.52388799497763,6.264241814339308,-4.711446,0.0,0.3079722,-1.0,-1.0,3.411313117186066,4.710358781377818,-9999,1698758270.01234,109.5148620605469,-552.018798828125,-384.5170593261719,174.3317413330078,171.6787567138672,14.46423244476318,199859.6516779167,0.044586181640625,-0.9683074951171876,-0.23895263671875,199859.6231109167,0.0021803299896419,0.0081556644290685,0.028160797432065,199859.6306409167,132.9056854248047,-644.7750244140625,-655.8668212890625,199859.5970279167,1.514278240778419,0.2006562653257427,1.322302896486816,0.0008669290691614,0.0042240638285875,0.0092477798461914,-0.0064936354756355,-0.0125277042388916,-0.0031762421131134,2,0.3897340885908675,0.4770768357689199,0.5840897802326739,0.5285304224397719,0.0490198470652103,-0.9692840576171876,-0.2410100698471069,109.5778350830078,-552.2706909179688,-384.8555603027344,-1,2,0,0,0,0,0,0,0,0,0,0,0,0,0,199856.664207,0,4.21714,100.4577,1698758231.829108,0,1685690884,0,0,1,1698758231.801021,1,0.75,0
1698758271.03256,1171,1698758269.97339,62.52388799497763,6.264241814339308,-4.711446,0.0,0.2707205,29.80276666657062,180.0,3.410796639877819,4.710732778898312,-9999,1698758271.025765,109.4621734619141,-552.3668823242188,-384.2269592285156,174.2615814208984,171.6085968017578,14.46512317657471,199860.657745375,0.0417633056640625,-0.9714813232421876,-0.238494873046875,199860.629178375,-0.000924116873648,0.0360107310116291,-0.0023632892407476,199860.656221375,132.6249084472656,-645.0272216796875,-655.250732421875,199860.610547375,1.519607300005801,0.1950947926037543,1.324560405707834,-0.002843820489943,-0.0132853351533412,0.0078334147110581,-0.0106027536094188,-0.00687837600708,0.0048175603151321,2,0.390777167031346,0.4772080226480679,0.5840009584682077,0.5277392759824974,0.0472543537616729,-0.9698368310928344,-0.2391314208507538,109.3073120117188,-552.3240356445312,-384.0733337402344,-1,2,0,0,0,0,0,0,0,0,0,0,0,0,0,199857.664784,0,4.203926,100.4579,1698758231.829108,0,1685690884,0,0,1,1698758231.801021,1,0.75,0
1698758272.035519,1201,1698758270.973385,62.52388799497763,6.264241814339308,-4.711446,0.0,0.3079722,-1.0,-1.0,3.408017601506354,4.712743687132976,-9999,1698758272.019297,109.5100250244141,-551.9411010742188,-384.4668884277344,174.3041076660156,171.651123046875,14.46568870544434,199861.663812875,0.043426513671875,-0.968536376953125,-0.2423553466796875,199861.635244875,-0.0028937908355146,0.0065191518515348,0.0044773062691092,199861.651651875,132.6998748779297,-644.591552734375,-655.7996215820312,199861.624066875,1.516078597389731,0.1987729396941489,1.32405903601606,0.0042476318776607,0.0098524270579218,-0.0089800404384732,-0.0229915715754032,-0.0016906261444091,0.0048897415399551,2,0.3903921657369077,0.4773653941772774,0.5838793651332853,0.5280163126974422,0.0482295714318752,-0.9697144627571106,-0.2394324690103531,109.8375701904297,-552.1319580078125,-383.8440246582031,-1,2,0,0,0,0,0,0,0,0,0,0,0,0,0,199858.665361,0,4.203926,100.4579,1698758231.829108,0,1685690884,0,0,1,1698758231.801021,1,0.75,0
1698758273.042699,1231,1698758271.97338,62.52388799497763,6.264241814339308,-4.711446,0.0,0.3079722,-1.0,-1.0,3.406402758714609,4.713911038427682,-9999,1698758273.032859,109.6611480712891,-552.3151245117188,-384.2436828613281,174.4125366210938,171.7595520019531,14.46548843383789,199862.6698775,0.048370361328125,-0.9777374267578124,-0.2418212890625,199862.6413095,-0.0079940110445022,0.0155422082170844,-0.005372661165893,199862.6470965,132.9243011474609,-644.5003051757812,-655.1033935546875,199862.6375835,1.507973679626869,0.206763162403156,1.323639713495008,-0.0016835671849548,0.0064347367733716,-0.0085317771881818,-0.0039142034947872,-0.0078204274177551,0.0004850029945373,2,0.3898672268492138,0.4777915789706981,0.5833728361432093,0.5285783001687622,0.0502246208488941,-0.9696119427680968,-0.2394375056028366,109.5019073486328,-551.9798583984375,-383.9194641113281,-1,2,0,0,0,0,0,0,0,0,0,0,0,0,0,199859.665937,0,4.264702,100.4572,1698758231.829108,0,1685690884,0,0,1,1698758231.801021,1,0.75,0
1698758274.046056,1261,1698758272.973374,62.52388799497763,6.264241814339308,-4.711446,0.0,0.3079722,-1.0,-1.0,3.405197751662197,4.714781575520075,-9999,1698758274.026456,109.3925476074219,-552.3187255859375,-384.2703552246094,174.425537109375,171.7725524902344,14.46576690673828,199863.6759410417,0.046417236328125,-0.967529296875,-0.2430267333984375,199863.6473740417,0.0011752529535442,0.0195161774754524,-0.0123413549736142,199863.6726970417,132.7701568603516,-644.55517578125,-654.8885498046875,199863.6511000417,1.510249145754843,0.2034106398855917,1.323796727983367,0.0056219464167952,0.0017497558146715,-0.001558028627187,-0.0028820522129535,0.0037384033203125,-0.0048530548810958,2,0.3903499312032969,0.477387994897658,0.5832921049927099,0.5286757350063971,0.0493908338248729,-0.9696503877639772,-0.2394552677869797,109.430908203125,-552.4317016601562,-384.7154846191406,-1,2,0,0,0,0,0,0,0,0,0,0,0,0,0,199860.666513,0,4.29377,100.4568,1698758231.829108,0,1685690884,0,0,1,1698758231.801021,1,0.75,0
1698758275.054539,1291,1698758273.97337,62.52388799497763,6.264241814339308,-4.711446,0.0,0.3079722,-1.0,-1.0,3.403861450577859,4.715746415792395,-9999,1698758275.039969,109.7359161376953,-552.2926635742188,-383.7691955566406,174.4559783935547,171.8029937744141,14.46619415283203,199864.6820035417,0.0532989501953125,-0.9654693603515624,-0.2387847900390625,199864.6534365417,-0.0047795753926038,0.0095319859683513,0.0278143212199211,199864.6681405417,133.0425720214844,-644.658447265625,-654.7928466796875,199864.6646145417,1.514343486684707,0.1974638626537781,1.324579391397499,0.0049706571735441,0.0125483069568872,-0.0104311686009168,-0.0218619853258132,-0.0045086741447448,0.0084406733512878,2,0.3913472013578465,0.4768091039788424,0.5830704784860479,0.5287054629134904,0.0478171557188034,-0.9698414206504822,-0.2390008866786957,109.721435546875,-552.3223266601562,-384.1199645996094,-1,2,0,0,0,0,0,0,0,0,0,0,0,0,0,199861.667085,0,4.29377,100.4568,1698758231.829108,0,1685690884,0,0,1,1698758231.801021,1,0.75,0
1698758276.058215,1321,1698758274.973364,62.52388799497763,6.264241814339308,-4.711446,0.0,0.3079722,-1.0,-1.0,3.40370119605485,4.715862084578345,-9999,1698758276.053376,109.3309020996094,-552.2356567382812,-384.1238708496094,174.6489868164062,171.9960021972656,14.46751403808594,199865.6880655,0.08685302734375,-0.9577484130859376,-0.25787353515625,199865.6594975,-0.0013273194199427,-0.0077585871331393,-0.030189860612154,199865.6635835,132.9085083007812,-644.66015625,-655.1913452148438,199865.6781285,1.505003310330453,0.2050949192881006,1.325839283948861,0.0018066683551296,-0.0365495011210441,0.0058633042499423,-0.036344438791275,-0.0264954566955566,0.020071268081665,2,0.3917392848887181,0.477309150522748,0.5818661125134539,0.5292904232992304,0.0493906959891319,-0.9701477289199828,-0.2374326139688492,109.4922790527344,-552.3362426757812,-384.1402282714844,-1,2,0,0,0,0,0,0,0,0,0,0,0,0,0,199862.667666,0,4.288483,100.4569,1698758231.829108,0,1685690884,0,0,1,1698758231.801021,1,0.75,0
1698758277.066728,1351,1698758275.973359,62.52388799497763,6.264241814339308,-4.711446,0.0,0.3079722,-1.0,-1.0,3.402578602319326,4.716672120025676,-9999,1698758277.047056,109.5451202392578,-552.2546997070312,-383.5396423339844,174.8110809326172,172.1580963134766,14.46870040893555,199866.6941246667,0.0619354248046875,-0.970123291015625,-0.2503662109375,199866.6655576667,-0.0041278996504843,-0.0178327932953834,0.0351630486547946,199866.6891196667,132.8052520751953,-644.7706909179688,-655.3656616210938,199866.6916406667,1.497964856103087,0.2093733636369481,1.327481962579734,-0.0006880606524646,-0.0186417438089847,-0.0244060792028904,-0.0022689849138259,0.0080507397651672,-0.0026212930679321,2,0.392682323166176,0.4774627597198335,0.580547172025759,0.5299009832938505,0.0500747486948967,-0.9705448150634766,-0.2356598079204559,109.5304718017578,-552.3223266601562,-384.1163024902344,-1,2,0,0,0,0,0,0,0,0,0,0,0,0,0,199863.668241,0,4.256775,100.4573,1698758231.829108,0,1685690884,0,0,1,1698758231.801021,1,0.75,0
1698758278.073427,1381,1698758276.973354,62.52388799497763,6.264241814339308,-4.711446,0.0,0.2959054,358.3713696546838,180.0,3.402583353867229,4.716668692284256,-9999,1698758278.060589,109.9809875488281,-552.4154663085938,-383.8656311035156,174.9971771240234,172.3441925048828,14.46854686737061,199867.7001845,0.0455322265625,-0.9741058349609376,-0.241180419921875,199867.6716165,0.0006439523422159,0.0357318967580795,-0.0092201298102736,199867.6845235,133.3328704833984,-644.7568359375,-654.9987182617188,199867.6455345,1.497898739672154,0.2059151920481637,1.327703663710328,-0.0012381146661937,-0.0051985438913106,0.0131142353639006,-0.0150053538382053,-0.004285991191864,0.003748595714569,2,0.3937697009097417,0.4765867045146521,0.5798100851788593,0.530689182321655,0.0492155291140079,-0.9705982208251952,-0.2356210649013519,110.0764923095703,-552.4063110351562,-383.7796325683594,-1,2,0,0,0,0,0,0,0,0,0,0,0,0,0,199864.668812,0,4.222427,100.4577,1698758231.829108,0,1685690884,0,0,1,1698758231.801021,1,0.75,0
1698758279.078813,1411,1698758277.973349,62.52388799497763,6.264241814339308,-4.711446,0.0,0.2959054,358.3713696546838,180.0,3.402475322498231,4.716746623741772,-9999,1698758279.074135,110.1443634033203,-552.510009765625,-384.8537292480469,175.2254180908203,172.5724334716797,14.46818161010742,199868.70623925,0.037841796875,-0.9660491943359376,-0.2380523681640625,199868.67767225,-0.0052325790748,0.0126313725486397,-0.0092134717851877,199868.67992225,133.0996856689453,-645.1603393554688,-655.5946044921875,199868.65904125,1.491822424263532,0.2087359946093401,1.325544068265605,-0.0011159526184201,0.0027108043432235,0.0036853062920272,-0.0001279935240745,-0.0028396248817443,-0.001116320490837,2,0.3937314091309511,0.4756154695563217,0.5791356078119104,0.5323227832359378,0.0503141433000564,-0.9700760841369628,-0.2375310063362122,109.8942565917969,-552.4315795898438,-384.6501770019531,-1,2,0,0,0,0,0,0,0,0,0,0,0,0,0,199865.669387,0,4.222427,100.4577,1698758231.829108,0,1685690884,0,0,1,1698758231.801021,1,0.75,0
1698758280.082393,1441,1698758278.973343,62.52388799497763,6.264241814339308,-4.711446,0.0,0.2959054,358.3713696546838,180.0,3.403562368515763,4.715962281063346,-9999,1698758280.067734,110.0949096679688,-552.6432495117188,-384.3713684082031,175.4662017822266,172.8132171630859,14.46763324737549,199869.71229425,0.055572509765625,-0.976165771484375,-0.24639892578125,199869.68372725,-0.0042490735650062,0.0044043357484042,0.0012431635987013,199869.70536425,133.4660949707031,-644.779052734375,-655.7947998046875,199869.67254825,1.484328944265954,0.2134336399524004,1.324284427520004,5.787773989140987e-05,-0.0061423066072165,0.0053544747643172,-0.005881380289793,-0.0112029314041137,-0.0068596601486206,2,0.3937621745448859,0.4750875813836306,0.5782857909130231,0.5336935938183079,0.0516882576048374,-0.9697694778442384,-0.2384862750768661,109.8920745849609,-552.5250244140625,-384.6196594238281,-1,2,0,0,0,0,0,0,0,0,0,0,0,0,0,199866.669965,0,4.222427,100.4577,1698758231.829108,0,1685690884,0,0,1,1698758231.801021,1,0.75,0
1698758281.090905,1471,1698758279.973338,62.52388799497763,6.264241814339308,-4.711446,0.0,0.2499886,330.3143285873396,180.0,3.404374201973714,4.715376265551316,-9999,1698758281.081258,109.8522796630859,-552.0934448242188,-383.6695251464844,175.65185546875,172.9988708496094,14.46698760986328,199870.71834575,0.044586181640625,-0.9736785888671876,-0.237640380859375,199870.68977875,0.0015012238873168,0.0103445164859294,0.0202376265078783,199870.70070575,133.2711944580078,-644.2341918945312,-655.2958984375,199870.68605275,1.484049457124222,0.2091963236064959,1.326111567173789,0.0067532998509705,0.0008890507742762,0.0085553349927067,-0.0027170293033123,-0.000382661819458,-0.0062556713819503,2,0.3956203491552407,0.4743415303143407,0.5770532538492249,0.5343166677472354,0.0503091514110565,-0.9702137112617492,-0.2369693070650101,110.1308746337891,-552.218994140625,-384.2394104003906,-1,2,0,0,0,0,0,0,0,0,0,0,0,0,0,199867.670528,0,4.32283,100.4565,1698758231.829108,0,1685690884,0,0,1,1698758231.801021,1,0.75,0
1698758282.094518,1501,1698758280.973333,62.52388799497763,6.264241814339308,-4.711446,0.0,0.2610408,340.2956489139034,180.0,3.40649161633022,4.713846826177189,-9999,1698758282.074735,109.6343994140625,-552.313720703125,-384.0040588378906,175.817138671875,173.1641540527344,14.46620082855225,199871.7243944167,0.03173828125,-0.9720306396484376,-0.2344818115234375,199871.6958274167,-0.0004588626616168,0.0062656188383698,0.0068794777616858,199871.6961444167,132.9543304443359,-644.6551513671875,-655.0321655273438,199871.6995544167,1.485908871434996,0.2027887879352167,1.328037571957486,-0.0018532369285821,-0.0120225474238395,-0.0123783955350518,-0.0109530761837959,-0.0010470747947692,-0.0063799619674682,2,0.3976239931255732,0.4734626826969903,0.5759380876724007,0.5348119572265846,0.0484134033322334,-0.9706785082817078,-0.2354564964771271,109.6343994140625,-552.313720703125,-384.0040588378906,-1,2,0,0,0,0,0,0,0,0,0,0,0,0,0,199868.671104,0,4.383606,100.4557,1698758231.829108,0,1685690884,0,0,1,1698758231.801021,1,0.75,0
1698758283.102908,1531,1698758281.973327,62.52388799497763,6.264241814339308,-4.711446,0.0,0.3079722,-1.0,-1.0,3.406931242988227,4.713529095947062,-9999,1698758283.088377,110.1190948486328,-552.1942138671875,-384.2443542480469,176.1024780273438,173.4494934082031,14.46497631072998,199872.7304405,0.0404510498046875,-0.97113037109375,-0.2365570068359375,199872.7018745,-0.0026519757229834,0.0043108589015901,0.009491772390902,199872.7217045,133.4707641601562,-644.962646484375,-655.5847778320312,199872.7130525,1.476094547904139,0.2086984431802408,1.328641031169364,-0.0046216137707233,-0.00871058460325,0.0002773711457848,0.0025176629424095,-0.0082416534423828,-0.0099137425422668,2,0.3984346235549131,0.4732371033067201,0.5743798761514054,0.5360825050221252,0.0496826060116291,-0.9708234071731568,-0.2345929890871048,110.1190948486328,-552.1942138671875,-384.2443542480469,-1,2,0,0,0,0,0,0,0,0,0,0,0,0,0,199869.67169,0,4.42588,100.4553,1698758231.829108,0,1685690884,0,0,1,1698758231.801021,1,0.75,0
1698758284.106635,1561,1698758282.973322,62.52388799497763,6.264241814339308,-4.711446,0.0,0.3079722,-1.0,-1.0,3.405881312110818,4.71428780629727,-9999,1698758284.101794,110.0830841064453,-551.9485473632812,-384.4527893066406,176.4037017822266,173.7507171630859,14.46431064605713,199873.7364856667,0.063446044921875,-0.9725189208984376,-0.251800537109375,199873.7079186667,0.007179083302617,-0.0044349622912704,0.0041635860688984,199873.7171126667,133.4219512939453,-644.4985961914062,-655.6740112304688,199873.7265496667,1.464917858112683,0.2164708705820805,1.328111053769125,-0.0044232411310076,-0.0131873376667499,-0.0083072036504745,-0.0130101479589939,-0.0095590353012084,-0.0015193670988082,2,0.3986834361247861,0.4729699921955607,0.5730213156903771,0.5375849156260416,0.0516148507595062,-0.9706961512565612,-0.2347018122673035,110.0830841064453,-551.9485473632812,-384.4527893066406,-1,2,0,0,0,0,0,0,0,0,0,0,0,0,0,199870.672264,0,4.523651,100.4541,1698758231.829108,0,1685690884,0,0,1,1698758231.801021,1,0.75,0
1698758285.115359,1591,1698758283.973316,62.52388799497763,6.264241814339308,-4.711446,0.0,0.3079722,-1.0,-1.0,3.403923481495987,4.715701640785714,-9999,1698758285.095434,110.1082763671875,-552.375,-384.7170715332031,176.5205535888672,173.8675689697266,14.46263885498047,199874.74252875,0.03509521484375,-0.966644287109375,-0.236572265625,199874.71396175,-0.0087234508246183,0.0052347094751894,0.0126707879826426,199874.74267075,133.3341064453125,-645.2769165039062,-656.0971069335938,199874.74004475,1.468501599866662,0.2094251741938639,1.327152194039917,0.0055748205631971,0.0012855166569352,0.0013971896842122,-0.0150125622749328,0.0036835670471191,0.0001763701438903,2,0.3995554256338709,0.4715615602794607,0.5727461092891128,0.5384674838865123,0.0501535013318061,-0.9704653024673462,-0.2359703183174133,110.1340484619141,-552.470458984375,-384.6153869628906,-1,2,0,0,0,0,0,0,0,0,0,0,0,0,0,199871.672842,0,4.563286,100.4536,1698758231.829108,0,1685690884,0,0,1,1698758231.801021,1,0.75,0
1698758286.118662,1621,1698758284.97331,62.52388799497763,6.264241814339308,-4.711446,0.0,0.3079722,-1.0,-1.0,3.402508189402967,4.716722914676522,-9999,1698758286.108969,110.5944519042969,-551.9721069335938,-384.6800842285156,176.6991882324219,174.0462036132812,14.460280418396,199875.74856975,0.0485382080078125,-0.9708251953125,-0.2438201904296875,199875.72000375,-0.0010831075487658,0.0091056143864989,-0.0119794309139251,199875.73802375,133.9497222900391,-644.242431640625,-655.86474609375,199875.69392075,1.465650453405725,0.2092727372660201,1.326920160865606,-0.0050482610240578,-0.0047034537419676,-0.0047357860021293,0.0011814087629318,0.0011403560638427,-0.0071027278900146,2,0.4001983196552836,0.4708949037515258,0.5719878041127826,0.5393788531850812,0.0501643903553485,-0.970409333705902,-0.2361985892057419,110.3972320556641,-552.10888671875,-384.5710754394531,-1,2,0,0,0,0,0,0,0,0,0,0,0,0,0,199872.673412,0,4.573853,100.4535,1698758231.829108,0,1685690884,0,0,1,1698758231.801021,1,0.75,0
1698758287.127082,1651,1698758285.973305,62.52388799497763,6.264241814339308,-4.711446,0.0,0.3079722,-1.0,-1.0,3.402158993192508,4.716974795123266,-9999,1698758287.122619,110.5858306884766,-552.3037719726562,-384.5041809082031,176.8945617675781,174.2415771484375,14.45749092102051,199876.7546109167,0.0545501708984375,-0.978057861328125,-0.2462921142578125,199876.7260439167,-0.0005496764206327,0.0132327144965529,0.0043649207800626,199876.7332619167,134.0772247314453,-644.527587890625,-655.9912719726562,199876.7074139167,1.457918318645274,0.2146079955410781,1.327976610794197,0.0007122796960175,0.0082618137821555,0.0099187530577182,-0.0105407610535621,-0.010064423084259,-0.0060565471649169,2,0.4008258866227553,0.471037042349375,0.5707864217659553,0.5400608830328367,0.0512054152786731,-0.970663845539093,-0.2349254339933395,110.6458435058594,-552.1488037109375,-384.6159362792969,-1,2,0,0,0,0,0,0,0,0,0,0,0,0,0,199873.67399,0,4.584419,100.4534,1698758231.829108,0,1685690884,0,0,1,1698758231.801021,1,0.75,0
1698758288.130928,1681,1698758286.9733,62.52388799497763,6.264241814339308,-4.711446,0.0,0.3079722,-1.0,-1.0,3.40190131054388,4.717160640269597,-9999,1698758288.116147,110.3912811279297,-552.0156860351562,-384.6242370605469,176.9638061523438,174.3108215332031,14.45475387573242,199877.7606527917,0.03179931640625,-0.9760284423828124,-0.23712158203125,199877.7320867917,-0.0007086671539582,0.0211806520819664,0.0131831802427768,199877.7586117917,133.7207183837891,-644.6796875,-655.6781005859375,199877.7209077917,1.460181003718337,0.2094554782168798,1.330620128266916,0.0016063431976363,-0.0167284458875656,-0.0074096769094467,-0.011527232825756,-0.0039542913436889,-0.0016996264457702,2,0.4025912613709607,0.470725640782557,0.5699042171664757,0.5399508919047165,0.049460545182228,-0.9712960720062256,-0.2326752990484238,110.6889801025391,-552.2080688476562,-384.8732604980469,-1,2,0,0,0,0,0,0,0,0,0,0,0,0,0,199874.674565,0,4.587067,100.4533,1698758231.829108,0,1685690884,0,0,1,1698758231.801021,1,0.75,0
1698758289.139232,1711,1698758288.973289,62.52388799497763,6.264241814339308,-4.711446,0.0,0.3079722,-1.0,-1.0,3.402067412183633,4.71704084736893,-9999,1698758289.135372,110.3123016357422,-552.1654663085938,-384.6517639160156,177.1022338867188,174.4492492675781,14.45515632629395,199878.76668575,0.1175689697265625,-0.94219970703125,-0.28216552734375,199878.73811875,-0.0039313584566116,-0.0518397614359855,-0.0390275605022907,199878.75391075,133.6214599609375,-644.4735107421875,-655.6488037109375,199878.73439275,1.457905079531748,0.2083450372581291,1.331809662950129,0.0042386059649288,-0.1080548614263535,-0.0731189846992492,0.010378174483776,0.0135855674743652,-0.0128000080585479,2,0.4038151831223174,0.4702481462199459,0.5688584092960579,0.5405556082925769,0.0489632189273834,-0.9715783596038818,-0.2315999567508698,110.4380493164062,-552.2344970703125,-385.0702819824219,-1,2,0,0,0,0,0,0,0,0,0,0,0,0,0,199875.67514,0,4.587067,100.4533,1698758231.829108,0,1685690884,0,0,1,1698758231.801021,1,0.75,0
1698758290.142622,1741,1698758289.973283,62.52388799497763,6.264241814339308,-4.711446,0.0,0.2902866,33.95183848246541,180.0,3.402661016171067,4.716612666079176,-9999,1698758290.123252,110.6190185546875,-552.2825317382812,-384.8806457519531,177.3518981933594,174.6989135742188,14.45702743530273,199879.772719625,0.0197906494140625,-0.9831085205078124,-0.22210693359375,199879.744153625,-0.0065335328690707,0.0664951354265213,0.0374096892774105,199879.749271625,133.9263153076172,-644.6885375976562,-656.045166015625,199879.747879625,1.44759263987032,0.2168501423686758,1.33047576127316,-0.00145595963113,0.0300835445523262,0.0166020169854164,-0.0346845909953117,-0.01204514503479,0.006716638803482,2,0.4034033041868061,0.4701551574394787,0.5680147272880326,0.5418294967706901,0.0512098297476768,-0.971261739730835,-0.2324398010969162,110.6029205322266,-552.2111206054688,-384.8774108886719,-1,2,0,0,0,0,0,0,0,0,0,0,0,0,0,199876.675704,0,4.521004,100.4541,1698758231.829108,0,1685690884,0,0,1,1698758231.801021,1,0.75,0
1698758291.155151,1771,1698758290.973277,62.52388799497763,6.264241814339308,-4.711446,0.0,0.2902866,33.95183848246541,180.0,3.402926258163904,4.716421303730981,-9999,1698758291.137191,110.811767578125,-552.2997436523438,-384.5127868652344,177.5335388183594,174.8805541992188,14.45269584655762,199880.778757875,0.0470123291015625,-0.97113037109375,-0.2398223876953125,199880.750190875,0.0032479912042617,0.0137373832985758,-0.012868127785623,199880.774734875,134.0083160400391,-644.5725708007812,-655.5474243164062,199880.761369875,1.441648594714102,0.2203451709731597,1.329354620921465,0.0003205158282071,-0.0140374759212136,0.0175168476998806,0.0083936192095279,-0.0100393295288085,-0.0227349698543548,2,0.4034539584417378,0.4696419613028668,0.5672987944731857,0.5429859121441591,0.052260048687458,-0.9709942936897278,-0.2333226650953293,110.7891998291016,-552.2161254882812,-384.2170715332031,-1,2,0,0,0,0,0,0,0,0,0,0,0,0,0,199877.676288,0,4.481369,100.4546,1698758231.829108,0,1685690884,0,0,1,1698758231.801021,1,0.75,0
1698758292.154972,1801,1698758291.973273,62.52388799497763,6.264241814339308,-4.711446,0.0,0.3079722,-1.0,-1.0,3.402678217565654,4.71660025659299,-9999,1698758292.149914,110.5575256347656,-552.4190673828125,-384.4685974121094,177.5912475585938,174.9382629394531,14.44802188873291,199881.78478475,0.043212890625,-0.96368408203125,-0.2395172119140625,199881.75621875,-0.0060352557338774,-0.003777427598834,0.006850981619209,199881.77005275,133.9136505126953,-644.12939453125,-655.907958984375,199881.77484875,1.448286769219532,0.210769751120635,1.329771236766503,0.0047816270962357,0.0004956983029842,-0.0002880655229091,-0.0075498707592487,-0.0009979605674743,-0.0064823478460311,2,0.4047440684661474,0.4684806730700281,0.5670955415276207,0.5432410629806351,0.0499387644231319,-0.971093773841858,-0.2334161996841431,110.6489105224609,-551.8921508789062,-384.7004699707031,-1,2,0,0,0,0,0,0,0,0,0,0,0,0,0,199878.676857,0,4.431168,100.4552,1698758231.829108,0,1685690884,0,0,1,1698758231.801021,1,0.75,0
1698758293.163376,1831,1698758292.973267,62.52388799497763,6.264241814339308,-4.711446,0.0,0.3079722,-1.0,-1.0,3.401823030270382,4.717217093108062,-9999,1698758293.143594,110.2570037841797,-552.1519165039062,-384.4567565917969,177.685302734375,175.0323181152344,14.44324588775635,199882.790814,0.0449676513671875,-0.969390869140625,-0.246429443359375,199882.762248,-0.0046339002437889,0.0074813519604504,0.012598349712789,199882.765398,133.5821380615234,-644.4681396484375,-655.5092163085938,199882.78833,1.449063872842057,0.2072216563768057,1.330475131174781,0.0048178485594689,-0.003556971438229,6.7870132625103e-05,-0.002308327704668,0.007241666316986,-0.0139639377593994,2,0.4057889610568678,0.4678394416588892,0.5664662195938736,0.5436706493567472,0.04896966740489,-0.9712615609169006,-0.232923150062561,110.5198822021484,-552.2424926757812,-384.5420837402344,-1,2,0,0,0,0,0,0,0,0,0,0,0,0,0,199879.677434,0,4.359825,100.456,1698758231.829108,0,1685690884,0,0,1,1698758231.801021,1,0.75,0
1698758294.166913,1861,1698758293.973261,62.52388799497763,6.264241814339308,-4.711446,0.0,0.3079722,-1.0,-1.0,3.401179445776424,4.717681147599614,-9999,1698758294.157185,110.3973388671875,-552.5988159179688,-385.0917053222656,177.9165344238281,175.2635498046875,14.43818187713623,199883.79684025,0.040740966796875,-0.977203369140625,-0.241790771484375,199883.76827425,-0.0016698020044714,0.0143136922270059,0.0081711104139685,199883.79090125,133.4220428466797,-644.734619140625,-656.3280639648438,199883.74219225,1.440150415968203,0.2138822096654092,1.331337946337836,0.0061186207458376,-0.009132856503129,0.0009669228456914,-0.0121339708566665,-0.0084071159362792,-0.008767157793045,2,0.406261683517007,0.4680441187610715,0.5652454399364267,0.5444113819630574,0.0503419637680053,-0.971466600894928,-0.2317722886800766,110.4439086914062,-552.5010986328125,-384.5574645996094,-1,2,0,0,0,0,0,0,0,0,0,0,0,0,0,199880.678003,0,4.359825,100.456,1698758231.829108,0,1685690884,0,0,1,1698758231.801021,1,0.75,0
1698758295.175452,1891,1698758294.973255,62.52388799497763,6.264241814339308,-4.711446,0.0,0.2496969,174.4035496377382,180.0,3.401322259493156,4.717578183757553,-9999,1698758295.170675,110.4495544433594,-552.010986328125,-384.7571716308594,178.1156768798828,175.4626922607422,14.43350505828857,199884.802866125,0.0409698486328125,-0.96746826171875,-0.2375640869140625,199884.774300125,0.0008322378271259,-0.0185110997408628,0.0047534760087728,199884.786181125,133.6378173828125,-644.4185180664062,-655.479248046875,199884.755670125,1.436659811082135,0.2134507779629597,1.331433631747912,-0.0049963677302002,-0.0090902894735336,-0.0098769078031182,0.0137424133718013,0.005088984966278,-0.020630657672882,2,0.4072299308081804,0.4672385555577515,0.5641901990734935,0.5454737062342586,0.050222422927618,-0.9714892506599426,-0.2317038327455521,110.4723358154297,-551.978271484375,-384.2164611816406,-1,2,0,0,0,0,0,0,0,0,0,0,0,0,0,199881.678584,0,4.359825,100.456,1698758231.829108,0,1685690884,0,0,1,1698758231.801021,1,0.75,0
1698758296.178881,1921,1698758295.97325,62.52388799497763,6.264241814339308,-4.711446,0.0,0.3079722,-1.0,-1.0,3.400832541652456,4.717931226334963,-9999,1698758296.164232,110.8021392822266,-552.2560424804688,-384.5948181152344,178.4465637207031,175.7935791015625,14.43550109863281,199885.808888625,0.1304473876953125,-0.9414825439453124,-0.29248046875,199885.780322625,-0.009637713432312,-0.0714262425899505,-0.0337148196995258,199885.781378625,134.2029266357422,-644.889892578125,-655.9491577148438,199885.769144625,1.430625741160312,0.2145938274464707,1.330269683777359,-0.0034095908049494,-0.0074184825643897,-0.0006818980909883,-0.097068965435028,-0.0260714292526245,0.0396510362625122,2,0.4079473305821913,0.4660509772913686,0.5629726646843787,0.5472087952647625,0.0507279969751834,-0.9712126851081848,-0.2327509224414825,110.7995452880859,-552.3399658203125,-385.0859069824219,-1,2,0,0,0,0,0,0,0,0,0,0,0,0,0,199882.679156,0,4.359825,100.456,1698758231.829108,0,1685690884,0,0,1,1698758231.801021,1,0.75,0
1698758297.194862,1951,1698758296.973244,62.52388799497763,6.264241814339308,-4.711446,0.0,0.2813394,20.48290425227396,180.0,3.400273345166348,4.718334262315472,-9999,1698758297.177666,110.6695098876953,-552.2865600585938,-384.6625671386719,178.9361724853516,176.2831878662109,14.43366146087646,199886.81491075,0.0531158447265625,-0.968048095703125,-0.250762939453125,199886.78634475,-0.0037329527549445,0.0024967135395854,0.0046538738533854,199886.80673775,133.9728240966797,-644.6397705078125,-655.794921875,199886.78261875,1.418033065710335,0.2200977464809864,1.327043314404602,-0.0020326401572674,-0.0149701116606593,-0.0105152986943721,0.0018886439502239,0.0023756027221679,-0.014475330710411,2,0.4083030027972002,0.464248193077093,0.5611825074860974,0.550305902849659,0.0526920370757579,-0.9704390168190002,-0.2355245500802994,110.6344299316406,-552.3287353515625,-384.8596496582031,-1,2,0,0,0,0,0,0,0,0,0,0,0,0,0,199883.679734,0,4.357185,100.4561,1698758231.829108,0,1685690884,0,0,1,1698758231.801021,1,0.75,0
1698758298.195439,1981,1698758297.973239,62.52388799497763,6.264241814339308,-4.711446,0.0,0.3079722,-1.0,-1.0,3.399012040626214,4.719242966882173,-9999,1698758298.191212,110.9729156494141,-552.1961059570312,-384.9777526855469,179.4264984130859,176.7735137939453,14.42785263061523,199887.820929875,0.0457763671875,-0.97216796875,-0.250823974609375,199887.792363875,-0.0054640076123178,0.0016338493442162,0.0171230603009462,199887.802017875,134.2854614257812,-644.3623046875,-656.1585693359375,199887.796089875,1.41156831145693,0.2181895419668662,1.324847284645494,0.0058512440882623,-0.0050099780783057,0.0129026472568512,-0.0087888985872268,-0.0099365711212158,-0.0142940878868103,2,0.4096325500767867,0.4618969782097881,0.5593735473954873,0.5531308356591655,0.0527036972343921,-0.9699066877365112,-0.2377047091722488,110.8158721923828,-552.1056518554688,-384.8321228027344,-1,2,0,0,0,0,0,0,0,0,0,0,0,0,0,199884.68031,0,4.32019,100.4565,1698758231.829108,0,1685690884,0,0,1,1698758231.801021,1,0.75,0
1698758299.199259,2011,1698758298.973233,62.52388799497763,6.264241814339308,-4.711446,0.0,0.3079722,-1.0,-1.0,3.398396271139416,4.719686410885213,-9999,1698758299.184779,110.8726348876953,-552.0555419921875,-385.7022399902344,179.8761901855469,177.2232055664062,14.42247867584229,199888.8269467917,0.0630340576171875,-0.9679107666015624,-0.2537078857421875,199888.7983807917,0.007120493799448,-0.0125096663832664,-0.0170389041304588,199888.8274927917,133.9448394775391,-644.2761840820312,-656.8382568359375,199888.8095587917,1.408678097737468,0.2112813724681054,1.325165301689814,-0.0028633752372115,0.0096301054581999,0.0094591984525322,0.0032339468598365,0.0055979490280151,-0.0186161994934082,2,0.4123282161209236,0.4594610968152758,0.5571001446688958,0.5554463262299477,0.0509957373142242,-0.9699840545654296,-0.2377618849277496,110.8726348876953,-552.0555419921875,-385.7022399902344,-1,2,0,0,0,0,0,0,0,0,0,0,0,0,0,199885.680883,0,4.299049,100.4568,1698758231.829108,0,1685690884,0,0,1,1698758231.801021,1,0.75,0
1698758300.202879,2041,1698758299.973228,62.52388799497763,6.264241814339308,-4.711446,0.0,0.3079722,-1.0,-1.0,3.398077952688493,4.719915598847209,-9999,1698758300.198155,110.8746032714844,-552.0900268554688,-385.2525329589844,180.3743896484375,177.7214050292969,14.41855812072754,199889.8329616667,0.063385009765625,-0.965240478515625,-0.256439208984375,199889.8043966667,-4.340952364145778e-05,-0.0080965422093868,0.003377953544259,199889.8226346667,134.1651763916016,-644.5870361328125,-656.4432373046875,199889.8230266667,1.402453087638475,0.2082023221349519,1.326504983188443,0.0025983594823628,-0.0177014041692018,-0.0175625756382942,-0.0256264209747314,-0.0015538930892944,0.003583088517189,2,0.4150396376909332,0.4576234724282953,0.5545084311620022,0.5575332822506052,0.0499946773052215,-0.9703089594841005,-0.2366457134485245,110.8746032714844,-552.0900268554688,-385.2525329589844,-1,2,0,0,0,0,0,0,0,0,0,0,0,0,0,199886.681459,0,4.248848,100.4574,1698758231.829108,0,1685690884,0,0,1,1698758231.801021,1,0.75,0
1698758301.211321,2071,1698758300.973222,62.52388799497763,6.264241814339308,-4.711446,0.0,0.3079722,-1.0,-1.0,3.397394041591843,4.720407901754368,-9999,1698758301.19188,111.1837921142578,-552.1698608398438,-385.2162780761719,180.897216796875,178.2442321777344,14.41414642333984,199890.8389765,0.0779876708984375,-0.958740234375,-0.2625885009765625,199890.8104105,-0.0027414578944444,-0.0719213262200355,-0.0435677170753479,199890.8178465,134.5213928222656,-644.4970703125,-656.2991333007812,199890.8364925,1.38951304660584,0.2131929006635359,1.327220703937383,-0.001233316026628,-0.0579854846000671,-0.0405751019716262,-0.03340420499444,-0.0130234956741333,0.0072752386331558,2,0.4168462138748631,0.4564887970060486,0.5518136560361085,0.5597847753492262,0.0510280914604663,-0.970481812953949,-0.2357144206762314,111.1425933837891,-551.9559326171875,-385.1161804199219,-1,2,0,0,0,0,0,0,0,0,0,0,0,0,0,199887.68204,0,4.227707,100.4576,1698758231.829108,0,1685690884,0,0,1,1698758231.801021,1,0.75,0
1698758302.215094,2101,1698758301.973217,62.52388799497763,6.264241814339308,-4.711446,0.0,0.3073257,7.298809463253592,180.0,3.397620288485543,4.720245058051567,-9999,1698758302.205183,111.2004547119141,-551.9578857421875,-385.1402893066406,181.2624816894531,178.6094970703125,14.41004276275635,199891.84498925,0.059478759765625,-0.96697998046875,-0.250091552734375,199891.81642425,-0.0038783615455031,0.0067971860989928,0.0011028150329366,199891.84342425,134.3854675292969,-644.5499267578125,-656.167236328125,199891.79034225,1.383303433646272,0.2126570705921731,1.326735637962194,0.0013930216664448,-0.0010000020265579,0.0137728694826364,0.0016111619770526,-0.0046872496604919,-0.0150187462568283,2,0.4182524213385482,0.4549329615057582,0.5500400127293371,0.5617445888847615,0.0510011240839958,-0.97036474943161,-0.2362018227577209,111.1273651123047,-551.9884033203125,-385.2357482910156,-1,2,0,0,0,0,0,0,0,0,0,0,0,0,0,199888.682613,0,4.227707,100.4576,1698758231.829108,0,1685690884,0,0,1,1698758231.801021,1,0.75,0
1698758303.223378,2131,1698758302.973211,62.52388799497763,6.264241814339308,-4.711446,0.0,0.2121447,24.65297830875686,180.0,3.398884142239017,4.719335082448054,-9999,1698758303.218749,111.2557525634766,-551.9237060546875,-384.8573303222656,181.5266723632812,178.8736877441406,14.40415382385254,199892.8510034167,0.0372772216796875,-0.9681243896484376,-0.2433013916015625,199892.8224374167,-0.0051897019147872,0.013856160454452,0.0106880646198988,199892.8388174167,134.1477203369141,-644.11474609375,-656.2783813476562,199892.8038074167,1.387055324975754,0.2026334203539733,1.32537877517825,0.0003269291482865,-0.0105314739048481,-0.0048505333252251,-0.012442659586668,-0.0013996362686157,0.0001518875360488,2,0.4197189118321676,0.4525933941997283,0.5492180089050425,0.5633425867593783,0.0488958954811096,-0.9700359702110292,-0.2379905134439468,111.3069152832031,-551.9451293945312,-385.1601867675781,-1,2,0,0,0,0,0,0,0,0,0,0,0,0,0,199889.683187,0,4.288483,100.4569,1698758231.829108,0,1685690884,0,0,1,1698758231.801021,1,0.75,0
1698758304.227009,2161,1698758303.973205,62.52388799497763,6.264241814339308,-4.711446,0.0,0.2121447,24.65297830875686,180.0,3.40044339184374,4.718211713314174,-9999,1698758304.212346,111.51806640625,-551.972412109375,-385.4198303222656,181.8511505126953,179.1981658935547,14.39827251434326,199893.857013625,0.045928955078125,-0.972259521484375,-0.24798583984375,199893.828447625,0.0023238742724061,-0.0017089504981413,0.0025204156991094,199893.834141625,134.8695983886719,-644.401611328125,-656.6287841796875,199893.817269625,1.380663456281972,0.2033583621302592,1.325069262499098,0.0024860412813723,0.0008703079074621,0.0089682042598724,-0.006999559700489,-0.001688539981842,-0.0066391080617904,2,0.4208650352853006,0.4513846376129772,0.5476181844865529,0.5650122998393429,0.0491290502250194,-0.9699606895446776,-0.2382490634918213,111.3460845947266,-551.7850341796875,-385.1149597167969,-1,2,0,0,0,0,0,0,0,0,0,0,0,0,0,199890.683762,0,4.357185,100.4561,1698758231.829108,0,1685690884,0,0,1,1698758231.801021,1,0.75,0
1698758305.2354,2191,1698758304.973199,62.52388799497763,6.264241814339308,-4.711446,0.0,0.2121447,24.65297830875686,180.0,3.400953313416674,4.717844167917056,-9999,1698758305.225811,111.6233520507812,-551.3623657226562,-385.0550231933594,182.0468292236328,179.3938446044922,14.39240550994873,199894.8630244167,0.0482635498046875,-0.976715087890625,-0.2424774169921875,199894.8344584167,0.0071151675656437,0.014716095291078,-0.0042855585925281,199894.8596214167,134.3586730957031,-643.8672485351562,-655.7522583007812,199894.8307324167,1.375917793265487,0.2043374749739204,1.328169037101896,0.0036091171205043,-0.0001663248986005,-0.0046768235042691,-0.0094149522483348,-0.0060356259346008,-0.0066261291503906,2,0.4226677832165252,0.4513578483187282,0.5459758349379202,0.5652774735854811,0.0487520582973957,-0.9707100987434388,-0.2352560758590698,111.3964996337891,-551.4309692382812,-384.6897888183594,-1,2,0,0,0,0,0,0,0,0,0,0,0,0,0,199891.684338,0,4.420601,100.4553,1698758231.829108,0,1685690884,0,0,1,1698758231.801021,1,0.75,0
1698758306.239069,2221,1698758305.973193,62.52388799497763,6.264241814339308,-4.711446,0.0,0.2121447,24.65297830875686,180.0,3.40135831335343,4.717552189109342,-9999,1698758306.219438,111.3595886230469,-551.6224975585938,-384.5287170410156,182.1555328369141,179.5025482177734,14.38701152801514,199895.869031625,0.0479278564453125,-0.9711151123046876,-0.232452392578125,199895.840466625,0.0001563275582157,0.0209689307957887,-0.0079157138243317,199895.854876625,134.5558776855469,-644.1098022460938,-655.5300903320312,199895.844191625,1.374138203137132,0.2028381817481825,1.334095037004913,0.0171257220208644,0.0059008756652474,-0.0045967446640133,-0.0041488371789455,0.0050451159477233,-0.0028533935546875,2,0.4253880691754164,0.4518846712158926,0.5441831912985052,0.5645441780754373,0.0472396463155746,-0.9721168279647828,-0.2296904623508453,111.3595886230469,-551.6224975585938,-384.5287170410156,-1,2,0,0,0,0,0,0,0,0,0,0,0,0,0,199892.684913,0,4.484016,100.4546,1698758231.829108,0,1685690884,0,0,1,1698758231.801021,1,0.75,0
1698758307.247421,2251,1698758306.973187,62.52388799497763,6.264241814339308,-4.711446,0.0,0.2121447,24.65297830875686,180.0,3.400985008844327,4.71782131946569,-9999,1698758307.232817,111.1717376708984,-551.833740234375,-384.1318054199219,182.1440887451172,179.4911041259766,14.38168430328369,199896.8750385,0.044677734375,-0.961517333984375,-0.233367919921875,199896.8464725,0.0061934473924338,0.016275642439723,0.0048184571787714,199896.8500215,134.6616973876953,-643.9962768554688,-655.6283569335938,199896.8576505,1.376792612648883,0.1990173168742448,1.337508262454194,-0.0106919230893254,0.0085767963901162,0.0015105665661394,-0.0054373778402805,-0.0104106664657592,-0.0032281130552291,2,0.4269245723029034,0.4521371040499152,0.5435541437747842,0.5637875711214833,0.0457053184509277,-0.972911536693573,-0.2266148924827576,111.2905731201172,-551.6630859375,-384.4278869628906,-1,2,0,0,0,0,0,0,0,0,0,0,0,0,0,199893.685488,0,4.513077,100.4542,1698758231.829108,0,1685690884,0,0,1,1698758231.801021,1,0.75,0
1698758308.251017,2281,1698758307.973182,62.52388799497763,6.264241814339308,-4.711446,0.0,0.2121447,24.65297830875686,180.0,3.401406729158924,4.717517280903295,-9999,1698758308.24625,111.3257904052734,-552.05859375,-384.9327087402344,182.1858825683594,179.5328979492188,14.37635612487793,199897.881043875,0.0405731201171875,-0.967681884765625,-0.2328033447265625,199897.852477875,0.022377211600542,-0.0022431805264204,0.0005581985460594,199897.875382875,134.6885986328125,-644.4575805664062,-656.3545532226562,199897.871107875,1.372000683859419,0.2042454700208052,1.336890529579235,-0.0115549564361572,0.0271087177097797,-2.415478229522705e-05,-0.0119009800255298,0.0091301202774047,-0.0019201636314392,2,0.426388911959024,0.4524507907731756,0.5434202576149162,0.5640703504330693,0.0470114089548587,-0.9727685451507568,-0.2269615530967712,111.1701354980469,-552.004638671875,-384.2827453613281,-1,2,0,0,0,0,0,0,0,0,0,0,0,0,0,199894.686059,0,4.513077,100.4542,1698758231.829108,0,1685690884,0,0,1,1698758231.801021,1,0.75,0
1698758309.259556,2311,1698758308.973176,62.52388799497763,6.264241814339308,-4.711446,0.0,0.2121447,24.65297830875686,180.0,3.401260727080448,4.717622547344056,-9999,1698758309.239777,110.9345703125,-552.0186767578125,-384.1874084472656,182.2126159667969,179.5596313476562,14.3715124130249,199898.8870510417,0.0516815185546875,-0.9637908935546876,-0.23388671875,199898.8584850417,-0.0053494917228817,0.0004125236591789,-0.0113445334136486,199898.8706630417,134.2899780273438,-643.7923583984375,-655.3201293945312,199898.8845670417,1.368674315912197,0.2084625510294816,1.335384226289306,-0.0197064485400915,-0.022197987884283,-0.0051026595756411,-0.0057449899613857,-0.0226988792419433,-0.0072794109582901,2,0.425509715563776,0.4525974395107403,0.5436265304935541,0.5644176090132336,0.0482711903750896,-0.9724183082580566,-0.228194072842598,110.9811859130859,-551.6922607421875,-384.4784240722656,-1,2,0,0,0,0,0,0,0,0,0,0,0,0,0,199895.686644,0,4.486656,100.4545,1698758231.829108,0,1685690884,0,0,1,1698758231.801021,1,0.75,0
1698758310.263083,2341,1698758309.973171,62.52388799497763,6.264241814339308,-4.711446,0.0,0.2121447,24.65297830875686,180.0,3.400801073318275,4.717953909536008,-9999,1698758310.253279,111.235107421875,-551.7515869140625,-384.7232971191406,182.0524291992188,179.3994445800781,14.36728954315186,199899.8930500417,0.05364990234375,-0.9735260009765624,-0.2416839599609375,199899.8644850417,-0.014256433583796,0.0157272983342409,-0.0058943745680153,199899.8658660417,134.6259155273438,-644.2955322265625,-655.9947509765625,199899.8384030417,1.375779521668909,0.2027951532573962,1.333317383498434,-0.0186400935053825,-0.0020311148837208,0.0224151834845542,0.0007747188210487,0.012873351573944,-0.0101827979087829,2,0.424778508975352,0.4520472888830878,0.5447651739144828,0.5643116344371301,0.0473820120096206,-0.971934139728546,-0.23043292760849,111.2376708984375,-551.9730224609375,-384.4020690917969,-1,2,0,0,0,0,0,0,0,0,0,0,0,0,0,199896.687214,0,4.478729,100.4546,1698758231.829108,0,1685690884,0,0,1,1698758231.801021,1,0.75,0
1698758311.273102,2371,1698758310.973166,62.52388799497763,6.264241814339308,-4.711446,0.0,0.2121447,24.65297830875686,180.0,3.40074157643561,4.717996795578721,-9999,1698758311.266733,111.3372497558594,-551.6200561523438,-384.6723327636719,182.0192260742188,179.3662414550781,14.36329078674316,199900.899050375,0.042938232421875,-0.9598388671875,-0.2295074462890625,199900.870484375,0.0172165371477603,0.0185494497418403,0.0141123570501804,199900.891201375,134.6325836181641,-644.0740966796875,-655.91748046875,199900.851855375,1.373394504824623,0.2073044571837299,1.332299964946079,-0.0243205539882183,0.0010352302342653,-0.0097365425899624,-0.0092717185616493,0.0054618716239929,-0.0033736228942871,2,0.4237612518456348,0.4525861514870852,0.5452157185905101,0.564209358094783,0.0486240945756435,-0.97169429063797,-0.2311843484640121,111.1265869140625,-551.716796875,-384.4092712402344,-1,2,0,0,0,0,0,0,0,0,0,0,0,0,0,199897.687789,0,4.462875,100.4548,1698758231.829108,0,1685690884,0,0,1,1698758231.801021,1,0.75,0
1698758312.275175,2401,1698758311.97316,62.52388799497763,6.264241814339308,-4.711446,0.0,0.2121447,24.65297830875686,180.0,3.400250438580052,4.718350769890365,-9999,1698758312.260295,111.0743255615234,-552.0540161132812,-384.2891540527344,181.9915466308594,179.3385620117188,14.3597469329834,199901.905049875,0.0350494384765625,-0.9972076416015624,-0.240264892578125,199901.876483875,-0.0233458019793033,0.0204671919345855,0.0050839744508266,199901.886355875,134.3009338378906,-644.4853515625,-655.1886596679688,199901.865305875,1.367020351582952,0.2158488184983576,1.332321189548871,-0.0117547828704118,0.0027479715645313,0.0139971151947975,0.0015307441353797,-0.0092425942420959,-0.0139951705932617,2,0.4228829673397006,0.4536515833737078,0.5452229040445041,0.5640057400404921,0.0505932345986366,-0.9716992974281312,-0.2307404726743698,111.0548858642578,-551.973876953125,-384.6118469238281,-1,2,0,0,0,0,0,0,0,0,0,0,0,0,0,199898.688365,0,4.431168,100.4552,1698758231.829108,0,1685690884,0,0,1,1698758231.801021,1,0.75,0
1698758313.28342,2431,1698758312.973154,62.52388799497763,6.264241814339308,-4.711446,0.0,0.3079722,-1.0,-1.0,3.400600420602666,4.718098537778308,-9999,1698758313.273855,111.3529510498047,-551.3051147460938,-384.2615051269531,181.8837280273438,179.2307434082031,14.35679531097412,199902.911046125,0.0542144775390625,-0.9521331787109376,-0.2383270263671875,199902.882480125,0.0073125078342854,-0.0083740437403321,-0.0049425605684518,199902.911741125,134.6690368652344,-643.8461303710938,-655.8267211914062,199902.878755125,1.372984911661488,0.2106309847453222,1.331613870395916,-0.0175475720316171,-0.0130326896905899,-0.0180838853120803,-0.0075857564806938,0.0037890076637268,-0.0052045881748199,2,0.4227250860614094,0.4532848373552399,0.5459161092834591,0.5637481765155792,0.0495321340858936,-0.9715319871902466,-0.2316727191209793,111.5161895751953,-551.4404907226562,-384.4234313964844,-1,2,0,0,0,0,0,0,0,0,0,0,0,0,0,199899.68894,0,4.362465,100.456,1698758231.829108,0,1685690884,0,0,1,1698758231.801021,1,0.75,0
1698758314.286978,2461,1698758313.973148,62.52388799497763,6.264241814339308,-4.711446,0.0,0.3079722,-1.0,-1.0,3.400363538098832,4.718269263358846,-9999,1698758314.267351,111.1868133544922,-551.813720703125,-384.8278503417969,181.9068450927734,179.2538604736328,14.3540563583374,199903.917043,0.043365478515625,-0.9654998779296876,-0.237091064453125,199903.888478,-0.0326998904347419,0.0280545372515916,0.0267429314553737,199903.906911,134.3829956054688,-644.1197509765625,-656.2874755859375,199903.892204,1.375134571141608,0.2078496215687347,1.329965066090123,0.0057988762855529,0.0002385359257459,0.0255431830883026,-0.0097132325172424,-0.0139523744583129,-0.0041560232639312,2,0.4224652951070066,0.4525862940274907,0.5462031822040416,0.5642261079306562,0.0492182299494743,-0.9711400270462036,-0.2333774417638779,111.0491485595703,-552.017578125,-384.8811340332031,-1,2,0,0,0,0,0,0,0,0,0,0,0,0,0,199900.689517,0,4.301697,100.4567,1698758231.829108,0,1685690884,0,0,1,1698758231.801021,1,0.75,0
1698758315.295395,2491,1698758314.973143,62.52388799497763,6.264241814339308,-4.711446,0.0,0.3079722,-1.0,-1.0,3.401202981372079,4.717664179686227,-9999,1698758315.280847,111.2940673828125,-552.0318603515625,-385.2480773925781,182.0542907714844,179.4013061523438,14.35127067565918,199904.9230390417,0.04449462890625,-0.9619903564453124,-0.2448272705078125,199904.8944740417,0.0066198194399476,0.0291783921420574,0.0207111369818449,199904.9021160417,134.6634521484375,-644.361083984375,-656.3690185546875,199904.9056520417,1.367425094870375,0.2156552746313425,1.325483994813637,-0.0190779939293861,0.0067273005843162,-0.0325995720922946,-0.019513551145792,-0.0101479887962341,-0.0065400004386901,2,0.4206263420096678,0.4521684841067211,0.5463954625849993,0.5657466686509595,0.051968976855278,-0.9700615406036376,-0.2372342795133591,111.2940673828125,-552.0318603515625,-385.2480773925781,-1,2,0,0,0,0,0,0,0,0,0,0,0,0,0,199901.690092,0,4.254135,100.4573,1698758231.829108,0,1685690884,0,0,1,1698758231.801021,1,0.75,0
1698758316.298908,2521,1698758315.973136,62.52388799497763,6.264241814339308,-4.711446,0.0,0.3079722,-1.0,-1.0,3.400835781817371,4.717928890720955,-9999,1698758316.294186,111.0838470458984,-551.7275390625,-384.7032165527344,182.1609954833984,179.5080108642578,14.34869384765625,199905.929035875,0.0533905029296875,-0.9569244384765624,-0.2475433349609375,199905.900470875,-0.0099341236054897,0.0084352968260645,-0.0023611586075276,199905.927603875,134.7661895751953,-644.5689697265625,-656.0423583984375,199905.919100875,1.363450675612306,0.2185563188576178,1.323644468094875,0.0205781143158674,0.003430662676692,-0.0066543370485305,-0.0129283927381038,0.0176782608032226,0.0065392404794692,2,0.420133978325285,0.4517472658526111,0.5461738834234664,0.5666621123990311,0.053043708205223,-0.9696131348609924,-0.2388236969709396,111.0838470458984,-551.7275390625,-384.7032165527344,-1,2,0,0,0,0,0,0,0,0,0,0,0,0,0,199902.69067,0,4.21978,100.4577,1698758231.829108,0,1685690884,0,0,1,1698758231.801021,1,0.75,0
1698758317.307439,2551,1698758316.973131,62.52388799497763,6.264241814339308,-4.711446,0.0,0.3079722,-1.0,-1.0,3.400487775317204,4.718179725562295,-9999,1698758317.287761,111.4216766357422,-552.0377197265625,-384.7087707519531,182.1807708740234,179.5277862548828,14.34638595581055,199906.9350297917,0.0565185546875,-0.9639739990234376,-0.24908447265625,199906.9064647917,-0.0201785042881965,-0.0181409213691949,-0.0240150541067123,199906.9229107917,134.8185119628906,-644.17236328125,-656.4638061523438,199906.9325457917,1.370113519857887,0.2099303991028886,1.323960639952425,-0.0143512152135372,-0.0370218306779861,0.0078850826248526,-0.0149377211928367,-0.0119839310646057,0.0007988810539245,2,0.4210890341420238,0.4507742313720618,0.5461969118705726,0.5667060980712232,0.0509179532527923,-0.969690442085266,-0.2389732301235199,111.4532470703125,-551.742919921875,-384.9842834472656,-1,2,0,0,0,0,0,0,0,0,0,0,0,0,0,199903.691668,0,4.21978,100.4577,1698758231.829108,0,1685690884,0,0,1,1698758231.801021,1,0.75,0
1698758318.313874,2581,1698758317.973126,62.52388799497763,6.264241814339308,-4.711446,0.0,0.3079722,-1.0,-1.0,3.400538862537002,4.718142905547095,-9999,1698758318.301251,111.5349273681641,-551.7975463867188,-384.7535095214844,182.2635650634766,179.6105804443359,14.34386539459229,199907.941021125,0.04547119140625,-0.9630889892578124,-0.2393341064453125,199907.912456125,0.0104563692584633,0.0078611187636852,0.0107091031968593,199907.918250125,135.1422729492188,-644.365966796875,-656.2003173828125,199907.886374125,1.369322264001502,0.2086094268477139,1.325349354431352,-0.0006302031688392,-0.0062355599366128,0.0039698742330074,-0.0131986141204834,-0.0029022097587585,-0.004220962524414,2,0.4220778047766031,0.450543207424581,0.5454699393654869,0.5668543271018407,0.0503232255578041,-0.970028817653656,-0.2377222925424576,111.5426788330078,-551.7113037109375,-384.9917907714844,-1,2,0,0,0,0,0,0,0,0,0,0,0,0,0,199904.69182,0,4.238281,100.4575,1698758231.829108,0,1685690884,0,0,1,1698758231.801021,1,0.75,0
1698758319.319195,2611,1698758318.97312,62.52388799497763,6.264241814339308,-4.711446,0.0,0.2500224,64.14271847456646,180.0,3.399914074972679,4.718593150038632,-9999,1698758319.314667,111.485595703125,-551.8169555664062,-385.0709533691406,182.4015350341797,179.7485504150391,14.34137535095215,199908.947008,0.032623291015625,-0.9856719970703124,-0.240936279296875,199908.918443,-0.0036842171102762,0.0081221088767051,0.0153701677918434,199908.943728,134.8239593505859,-644.1558837890625,-656.2451782226562,199908.899814,1.363633890253013,0.2123675324813628,1.326611649006967,0.0002895137295126,-0.0125188957899808,-0.0164790600538253,-0.0002683959901332,0.001813530921936,-0.0075926780700683,2,0.4227448414212471,0.4506880273264113,0.5444475717357591,0.567224851605115,0.0509580932557582,-0.970334768295288,-0.2363342046737671,111.4383239746094,-551.8558959960938,-385.1424255371094,-1,2,0,0,0,0,0,0,0,0,0,0,0,0,0,199905.692395,0,4.317551,100.4565,1698758231.829108,0,1685690884,0,0,1,1698758231.801021,1,0.75,0
1698758320.322861,2641,1698758319.973114,62.52388799497763,6.264241814339308,-4.711446,0.0,0.3079722,-1.0,-1.0,3.399401504158942,4.718962433237921,-9999,1698758320.308353,111.3540496826172,-551.7420043945312,-385.0735168457031,182.5406646728516,179.8876800537109,14.33905506134033,199909.95299725,0.0433502197265625,-0.9655609130859376,-0.2379302978515625,199909.92443225,-0.0023928501177579,0.0090920319780707,0.0102952476590871,199909.93900125,134.6342010498047,-643.9599609375,-655.5849609375,199909.91325425,1.362941109613261,0.210104756874393,1.326949355041021,0.0037194793112576,-0.0046332227066159,-0.0061366204172372,-0.0072945393621921,0.0030853748321533,-0.0044874250888824,2,0.4236260403538615,0.449974257497685,0.5437179567869992,0.5678335851705523,0.0503548197448253,-0.9704163670539856,-0.2361282855272293,111.2428283691406,-551.9512329101562,-384.6286315917969,-1,2,0,0,0,0,0,0,0,0,0,0,0,0,0,199906.692969,0,4.370392,100.4559,1698758231.829108,0,1685690884,0,0,1,1698758231.801021,1,0.75,0
1698758321.331403,2671,1698758320.973108,62.52388799497763,6.264241814339308,-4.711446,0.0,0.1913252,72.11445686403249,180.0,3.399670200880418,4.718768860416298,-9999,1698758321.321669,111.0589447021484,-552.0945434570312,-384.9572448730469,182.6918182373047,180.0388336181641,14.33667469024658,199910.958984,0.0482025146484375,-0.966705322265625,-0.234466552734375,199910.930419,-0.0037268276792019,0.0254038926213979,0.0101080276072025,199910.934327,134.5995483398438,-644.151123046875,-656.4506225585938,199910.926693,1.362234317370588,0.2076880368814839,1.326331267219585,-0.0018357983790338,0.0011284779757261,-0.0051241884939372,0.0066412836313247,0.0068726539611816,-0.0078685283660888,2,0.4242409160121056,0.4490004188677924,0.5431042838499532,0.5687320803507462,0.0499077662825584,-0.9702669382095336,-0.2368365377187729,111.0238037109375,-552.0851440429688,-385.0370178222656,-1,2,0,0,0,0,0,0,0,0,0,0,0,0,0,199907.693546,0,4.386246,100.4557,1698758231.829108,0,1685690884,0,0,1,1698758231.801021,1,0.75,0
1698758322.334839,2701,1698758321.973103,62.52388799497763,6.264241814339308,-4.711446,0.0,0.1913252,72.11445686403249,180.0,3.399244036058199,4.719075864627693,-9999,1698758322.315093,111.7807312011719,-551.8510131835938,-384.9306945800781,182.8388519287109,180.1858673095703,14.33629608154297,199911.964969875,0.0197601318359375,-0.9799957275390624,-0.231597900390625,199911.936404875,-0.0037579864729195,0.08222296833992,0.0291323196142911,199911.959793875,134.7480926513672,-644.1485595703125,-655.882080078125,199911.940130875,1.35552218386414,0.2132604547955652,1.324532735504266,-0.0046193725429475,0.0645893961191177,0.0207802597433328,-0.0282500423491001,-0.0076938271522521,0.0076538473367691,2,0.4236498576192562,0.4487659647210873,0.5426628430627085,0.5697781095053236,0.0515959747135639,-0.96983003616333,-0.2382598072290421,111.7807312011719,-551.8510131835938,-384.9306945800781,-1,2,0,0,0,0,0,0,0,0,0,0,0,0,0,199908.694117,0,4.386246,100.4557,1698758231.829108,0,1685690884,0,0,1,1698758231.801021,1,0.75,0
1698758323.343323,2731,1698758322.973097,62.52388799497763,6.264241814339308,-4.711446,0.0,0.3079722,-1.0,-1.0,3.398186439023096,4.719837492798705,-9999,1698758323.328587,111.4608917236328,-552.2688598632812,-385.2269592285156,182.9175109863281,180.2645263671875,14.33443450927734,199912.970952375,0.0420074462890625,-0.9782867431640624,-0.2424468994140625,199912.942388375,0.0017662084428593,0.0068091703578829,0.0136044919490814,199912.954970375,134.7563018798828,-644.7238159179688,-656.3690185546875,199912.953565375,1.354666319464984,0.212512917992894,1.325470748729951,0.0060634780675172,-0.006226613651961,-0.0042409468442201,0.0025002583861351,-0.0042917728424072,-0.0113245695829391,2,0.4243502752404728,0.4485782416165205,0.542111316337071,0.5699296650361063,0.0512259230017662,-0.9700583219528198,-0.2374088168144226,111.4746704101562,-552.0744018554688,-385.2801818847656,-1,2,0,0,0,0,0,0,0,0,0,0,0,0,0,199909.694692,0,4.362465,100.456,1698758231.829108,0,1685690884,0,0,1,1698758231.801021,1,0.75,0
1698758324.346835,2761,1698758323.973091,62.52388799497763,6.264241814339308,-4.711446,0.0,0.3079722,-1.0,-1.0,3.397375277797246,4.72042140646372,-9999,1698758324.342078,111.4835510253906,-552.179443359375,-384.3919982910156,182.8603668212891,180.2073822021484,14.33111667633057,199913.9769355,0.05291748046875,-0.9662628173828124,-0.2430419921875,199913.9483705,0.0023811322171241,0.0009701895760372,0.0100182797759771,199913.9501945,134.84912109375,-644.6980590820312,-655.4739379882812,199913.9669995,1.363358830735218,0.2023092489184795,1.327879802302712,0.0012486970517784,-0.0013170912861824,-0.0063410261645913,-0.0139837451279163,-0.0010850429534912,0.0030552744865417,2,0.4259499208245112,0.448053406137089,0.5420305917490222,0.5692256879443435,0.0483312420547008,-0.9706405997276306,-0.2356296181678772,111.6120758056641,-551.9771728515625,-384.2497253417969,-1,2,0,0,0,0,0,0,0,0,0,0,0,0,0,199910.695269,0,4.312263,100.4566,1698758231.829108,0,1685690884,0,0,1,1698758231.801021,1,0.75,0
1698758325.355618,2791,1698758324.973086,62.52388799497763,6.264241814339308,-4.711446,0.0,0.2338909,71.55234501332447,180.0,3.396511432759827,4.721043011869371,-9999,1698758325.335646,111.6600036621094,-551.7738037109375,-384.1730041503906,182.8377380371094,180.1847534179688,14.32857036590576,199914.9829170417,0.0379180908203125,-0.9642181396484376,-0.22662353515625,199914.9543530417,-0.0043441485613584,-0.0364978238940239,-0.0147184925153851,199914.9756260417,135.1094970703125,-644.5753784179688,-656.1555786132812,199914.9804340417,1.367225830053322,0.1985808134422549,1.328616949265939,0.002742359181866,0.0024916129186749,-0.0229828506708145,-0.0571073070168495,-0.008674681186676,0.032957911491394,2,0.426332714841425,0.4479813413105394,0.5422163657226334,0.5688186459154688,0.0473111309111118,-0.9708176255226136,-0.2351062744855881,111.7663116455078,-552.0771484375,-384.7591247558594,-1,2,0,0,0,0,0,0,0,0,0,0,0,0,0,199911.695845,0,4.269989,100.4571,1698758231.829108,0,1685690884,0,0,1,1698758231.801021,1,0.75,0
1698758326.358772,2821,1698758325.97308,62.52388799497763,6.264241814339308,-4.711446,0.0,0.3079722,-1.0,-1.0,3.39671360239226,4.720897556197575,-9999,1698758326.349107,111.3905944824219,-551.6494140625,-384.6336975097656,182.9154205322266,180.2624359130859,14.32903385162354,199915.9888989167,-0.0725555419921875,-0.987701416015625,-0.2032012939453125,199915.9603349167,-0.0177017655223608,0.0498754158616066,-0.0531036965548992,199915.9708829167,134.6316986083984,-644.0967407226562,-655.8899536132812,199915.9342529167,1.358971559007578,0.206875930938506,1.327762404492326,-0.0062779383733868,0.0017835414037108,0.0022090938873589,-0.0076058432459831,0.000443160533905,-0.0166334509849548,2,0.4256577461826238,0.4483932541888186,0.5417729321215107,0.5694218917063439,0.0494301803410053,-0.9706123471260072,-0.2355179488658905,111.5754241943359,-551.66845703125,-384.2156677246094,-1,2,0,0,0,0,0,0,0,0,0,0,0,0,0,199912.69642,0,4.269989,100.4571,1698758231.829108,0,1685690884,0,0,1,1698758231.801021,1,0.75,0
1698758327.367128,2851,1698758326.973073,62.52388799497763,6.264241814339308,-4.711446,0.0,0.3079722,-1.0,-1.0,3.397160426515276,4.720576031514309,-9999,1698758327.362478,111.4249420166016,-551.9442749023438,-384.3969421386719,181.5838317871094,178.9308471679688,14.33217239379883,199916.994881125,0.080474853515625,-1.003341674804688,-0.2291717529296875,199916.966316125,-0.0060906494036316,0.1071901023387909,-0.0180399864912033,199916.996287125,134.4547882080078,-644.1715087890625,-655.8157958984375,199916.947687125,1.382841151337747,0.2035521710181538,1.326292662409727,-0.0640883669257164,-0.0443119630217552,0.021246924996376,0.0913081914186477,-0.0078308582305908,-0.00887893140316,2,0.4207140707686667,0.4521736471902333,0.548072756373499,0.5640523023117984,0.0489353314042091,-0.970257580280304,-0.2370773255825043,111.2771606445312,-552.0582275390625,-384.4172058105469,-1,2,0,0,0,0,0,0,0,0,0,0,0,0,0,199913.696996,0,4.277916,100.457,1698758231.829108,0,1685690884,0,0,1,1698758231.801021,1,0.75,0
1698758328.370678,2881,1698758327.973068,62.52393462908442,6.26415273364976,-6.707209,0.07260341,0.7335104,-1.0,-1.0,3.392106328147978,4.724209107493791,-9999,1698758328.355931,110.5299377441406,-552.1771240234375,-383.9289855957031,179.6394195556641,176.9864349365234,14.33356189727783,199918.00086025,-0.0653533935546875,-0.983734130859375,-0.233367919921875,199917.97229525,0.0250182673335075,0.0325819104909896,-0.0709751099348068,199917.99151825,133.8743286132812,-644.6137084960938,-655.0186767578125,199917.96111825,1.424071847483989,0.1985486979899631,1.322588952953498,-0.0021351457107812,0.0381609499454498,-0.115530751645565,-0.067774660885334,0.0134521722793579,0.0247457176446914,2,0.4115283765780575,0.4585020501216918,0.5591836098184081,0.5547378145374102,0.0484570041298866,-0.9693543910980223,-0.2408405244350433,110.5050048828125,-552.4843139648438,-384.2738342285156,-1,2,0,0,0,0,0,0,0,0,0,0,0,0,0,199914.697573,0,4.346611,100.4562,1698758231.829108,0,1685690884,0,0,1,1698758231.801021,1,0.75,0
1698758329.379125,2911,1698758328.973063,62.52393020173464,6.264149964934344,-6.175992,0.2833773,1.013569,-1.0,-1.0,3.380337183152943,4.732637484636073,-9999,1698758329.369433,110.6176452636719,-552.4246215820312,-384.7839660644531,179.5113525390625,176.8583679199219,14.33549785614014,199919.006843,0.04742431640625,-0.957244873046875,-0.235687255859375,199918.978279,-0.0130550814792513,0.0476194508373737,0.0084099965170025,199918.986601,133.7176666259766,-644.2130126953125,-655.6075439453125,199918.974553,1.420381439858275,0.2056390055729208,1.315445176552867,-0.0073996623978018,0.0202884301543235,-0.0121613573282957,-0.0581832006573677,0.022674024105072,0.0359296798706054,2,0.4081168286842692,0.4580488683186995,0.5608171541100087,0.555982138631675,0.0515761412680149,-0.967574656009674,-0.2472637742757797,110.6891174316406,-552.181884765625,-383.9669494628906,-1,2,0,0,0,0,0,0,0,0,0,0,0,0,0,199915.698153,0,4.417953,100.4553,1698758231.829108,0,1685690884,0,0,1,1698758231.801021,1,0.75,0
1698758330.382653,2941,1698758329.973057,62.52393353963478,6.264155797094391,-6.121484,0.07854108,1.140803,-1.0,-1.0,3.379239289170902,4.733421474928317,-9999,1698758330.362997,110.5994110107422,-553.2117309570312,-386.8951110839844,179.3168182373047,176.6638336181641,14.335862159729,199920.012819375,0.073211669921875,-0.965087890625,-0.296478271484375,199919.984254375,-0.0491414479911327,0.0066363308578729,0.0086297066882252,199920.011733375,133.9953918457031,-645.6774291992188,-658.1019897460938,199919.987980375,1.45094544394178,0.1785142024418728,1.276807814023815,-0.043220430612564,0.0021354146301746,0.0089061269536614,0.0391371995210647,-0.0052305459976196,-0.0128974020481109,2,0.3965856765307222,0.4473655654897747,0.5704354286539992,0.5631940620478272,0.0514542199671268,-0.957095742225647,-0.2851676940917969,110.5277252197266,-553.1598510742188,-387.1725769042969,-1,2,0,0,0,0,0,0,0,0,0,0,0,0,0,199916.698724,0,4.486656,100.4545,1698758231.829108,0,1685690884,0,0,1,1698758231.801021,1,0.75,0
1698758331.394561,2971,1698758330.973051,62.52393489096508,6.264132206118298,-5.577579,0.04437453,1.16772,-1.0,-1.0,3.37323287431905,4.737703769591559,-9999,1698758331.376433,110.6877593994141,-553.7051391601562,-389.7599182128906,179.1113128662109,176.4583282470703,14.33077144622803,199921.018794875,0.0327911376953125,-0.9471435546875,-0.3262481689453125,199920.990230875,-0.048164065927267,0.0038290929514914,0.0195582546293735,199921.006765875,134.0468139648438,-646.0706787109375,-660.8818359375,199921.001407875,1.484378361904787,0.1455409308621228,1.229744953542437,-0.0438297018408775,3.640633076429367e-05,-0.0137462215498089,-0.0130930170416832,0.00497967004776,0.0067694187164306,2,0.3838693212487863,0.4326351809410525,0.5815581147096645,0.5720677590637023,0.0485086403787136,-0.9424035549163818,-0.330942302942276,110.5415649414062,-553.7353515625,-389.8636779785156,-1,2,0,0,0,0,0,0,0,0,0,0,0,0,0,199917.699298,0,4.563286,100.4536,1698758231.829108,0,1685690884,0,0,1,1698758231.801021,1,0.75,0
1698758332.395468,3001,1698758331.973045,62.52393581570783,6.264134630250695,-5.707455,0.360449,1.080733,-1.0,-1.0,3.372509004448781,4.738219079749345,-9999,1698758332.389891,110.9918365478516,-554.3290405273438,-392.6401672363281,178.9149932861328,176.2620086669922,14.32311344146729,199922.024771375,0.0403594970703125,-0.928497314453125,-0.3766021728515625,199921.996207375,-0.0551247708499431,0.0021283982787281,-0.0036408074665814,199922.001930375,134.4074401855469,-646.8349609375,-664.11669921875,199922.014836375,1.508675001506606,0.1221742810201406,1.181665934087454,-0.0504777841269969,0.0008400958031415,-0.0030352147296071,-0.0308091714978218,-0.0110400915145874,0.017379879951477,2,0.3704618798011826,0.4177077586911224,0.5924370310973808,0.5807726237560715,0.0462357886135578,-0.925239324569702,-0.3765564560890198,110.9918365478516,-554.3290405273438,-392.6401672363281,-1,2,0,0,0,0,0,0,0,0,0,0,0,0,0,199918.699874,0,4.668976,100.4523,1698758231.829108,0,1685690884,0,0,1,1698758231.801021,1,0.75,0
1698758333.402983,3031,1698758332.973039,62.52393309074084,6.264143686890857,-6.246724,0.2951144,0.3079722,-1.0,-1.0,3.374158894317931,4.737044309343542,-9999,1698758333.383398,111.5509490966797,-554.85693359375,-396.3986511230469,178.8460540771484,176.1930694580078,14.31690692901611,199923.0307444167,0.031890869140625,-0.9376373291015624,-0.417694091796875,199923.0021804167,-0.0344013832509517,0.0101849930360913,-0.0578822083771228,199923.0273164167,135.0678405761719,-646.778564453125,-668.0113525390625,199923.0282604167,1.523900699058662,0.1084507744718125,1.13146171673405,-0.0631550252437591,-0.0054180915467441,0.0461309440433979,-0.042162112891674,-0.0498144626617431,0.0175500810146331,2,0.3556591264809813,0.4026006248974478,0.6029402984535283,0.5898155925757829,0.0460378117859363,-0.9050348997116088,-0.4228386580944061,111.6836853027344,-554.5013427734375,-396.6758117675781,-1,2,0,0,0,0,0,0,0,0,0,0,0,0,0,199919.70045,0,4.748245,100.4514,1698758231.829108,0,1685690884,0,0,1,1698758231.801021,1,0.75,0
1698758334.406484,3061,1698758333.973034,62.52392610723921,6.264158055499683,-5.786931,0.1960085,0.7228318,-1.0,-1.0,3.371701786390055,4.738793527517626,-9999,1698758334.39673,111.693603515625,-555.29541015625,-399.6965026855469,178.7172393798828,176.0642547607422,14.31307029724121,199924.0367172917,0.05145263671875,-0.8865966796875,-0.4617919921875,199924.0081522917,-0.0474854931235313,0.0068781459704041,-0.0038266961928457,199924.0225892917,134.9757232666016,-647.5517578125,-671.0377197265625,199923.9820712917,1.536242442899239,0.0957092686503012,1.084120267131669,-0.0548825226724147,-0.0206050276756286,0.0118830259889364,0.001112837344408,-0.0140875577926635,0.0038651227951049,2,0.3421492458591565,0.3875032558692076,0.6122542227679743,0.5982642214107329,0.0446940250694751,-0.883892297744751,-0.4655502438545227,111.7928466796875,-555.1109008789062,-399.5149841308594,-1,2,0,0,0,0,0,0,0,0,0,0,0,0,0,199920.701027,0,4.835442,100.4504,1698758231.829108,0,1685690884,0,0,1,1698758231.801021,1,0.75,0
1698758335.414812,3091,1698758334.973029,62.52392764993647,6.264168404375011,-5.910859,0.1841706,0.7055384,-1.0,-1.0,3.366492847504212,4.742495433892564,-9999,1698758335.410173,111.9375457763672,-555.4503784179688,-403.5642395019531,178.6122436523438,175.9592590332031,14.30711460113525,199925.042689,0.0316009521484375,-0.8675689697265625,-0.4980621337890625,199925.014125,-0.055558867752552,0.0205406956374645,0.0174133442342281,199925.017805,135.2635040283203,-648.0184326171875,-674.5643310546875,199924.995496,1.549682370831843,0.0813775913150476,1.034837733811359,-0.0462587662041187,-0.0137665923684835,-0.0075214686803519,-0.0134194903075695,-0.0071640014648437,0.0141791105270385,2,0.3284096846097229,0.3710245178123748,0.6218974109029947,0.6064089287000135,0.0415108948945999,-0.8597794771194458,-0.5089757442474365,112.3572845458984,-555.3219604492188,-402.8440856933594,-1,2,0,0,0,0,0,0,0,0,0,0,0,0,0,199921.701602,0,4.959633,100.4489,1698758231.829108,0,1685690884,0,0,1,1698758231.801021,1,0.75,0
1698758336.418414,3121,1698758335.973022,62.52392501465079,6.264176447180135,-6.015954,0.1198355,0.950971,-1.0,-1.0,3.363871295276458,4.744355271436143,-9999,1698758336.403775,112.5914611816406,-555.1199340820312,-406.3535461425781,178.5930328369141,175.9400482177734,14.30159091949463,199926.048659875,0.0408782958984375,-0.85870361328125,-0.549560546875,199926.020094875,-0.0422728881239891,0.0358770415186882,-0.0078784292563796,199926.043176875,135.8016662597656,-647.6113891601562,-677.4642333984375,199926.008917875,1.556836213622743,0.0735806156455158,0.9857083123901844,-0.0491093322634697,-0.0196942575275898,0.0198424644768238,0.0151861757040023,-0.0158392190933227,-0.0008265972137451,2,0.3139083455578954,0.3550665915323971,0.6305606859496642,0.6146402597917986,0.0405999198555946,-0.8336634635925293,-0.5507785081863403,112.5596618652344,-554.772216796875,-406.0459899902344,-1,2,0,0,0,0,0,0,0,0,0,0,0,0,0,199922.702174,0,5.102318,100.4472,1698758231.829108,0,1685690884,0,0,1,1698758231.801021,1,0.75,0
1698758337.426863,3151,1698758336.973017,62.52393003616884,6.264184325137951,-7.044784,0.364434,0.3482023,-1.0,-1.0,3.360901832141917,4.746459302205586,-9999,1698758337.417192,113.2332000732422,-555.0333251953125,-409.9719543457031,178.5629577636719,175.9099731445312,14.29710102081299,199927.054629875,0.0363311767578125,-0.81915283203125,-0.5904541015625,199927.026064875,-0.0574113614857196,0.02026585675776,-0.0070206252858042,199927.038415875,136.4600677490234,-647.3348999023438,-681.1273803710938,199927.022339875,1.562322031302501,0.06817143799681,0.936152564133338,-0.0570731088519096,0.0031962795183062,-0.0148593820631504,-0.0024993754923343,-0.0149075388908386,0.0036383271217346,2,0.2987741218922787,0.3390829063821194,0.6389224427754425,0.6225231243422416,0.0403869152069091,-0.8052829504013062,-0.5915136337280273,113.2503814697266,-555.0324096679688,-409.9901428222656,-1,2,0,0,0,0,0,0,0,0,0,0,0,0,0,199923.702755,0,5.231789,100.4456,1698758231.829108,0,1685690884,0,0,1,1698758231.801021,1,0.75,0
1698758338.434879,3181,1698758337.973011,62.52393544266091,6.264182301538726,-7.155521,0.2538407,0.4239025,-1.0,-1.0,3.354810086935811,4.750766918444071,-9999,1698758338.430677,113.3860321044922,-554.7550659179688,-413.9495544433594,178.5282592773438,175.8752746582031,14.29352855682373,199928.060600375,0.0398712158203125,-0.7819671630859375,-0.6228790283203125,199928.032036375,-0.0479813739657402,0.0054088803008198,-0.0105514442548155,199928.033668375,136.4365692138672,-647.08642578125,-685.0433959960938,199928.035761375,1.568459076612487,0.06058303638502,0.8859871095037904,-0.0530754663050174,-0.0163400061428546,-0.0130541753023862,-0.0057498961687088,-0.0056269764900207,0.0170155763626098,2,0.2839870707156671,0.3219765662318386,0.6470024415180079,0.6301351787590483,0.0382968671619892,-0.7745397090911865,-0.6313648819923401,113.2226867675781,-554.750244140625,-413.9800109863281,-1,2,0,0,0,0,0,0,0,0,0,0,0,0,0,199924.703333,0,5.427322,100.4433,1698758231.829108,0,1685690884,0,0,1,1698758231.801021,1,0.75,0
1698758339.43875,3211,1698758338.973006,62.52394170264544,6.26418062634726,-6.618245,0.1545671,0.5626576,-1.0,-1.0,3.36267340768252,4.745204377690562,-9999,1698758339.42419,114.2677612304688,-554.1575317382812,-417.8828430175781,178.4587860107422,175.8058013916016,14.28934288024902,199929.0665679167,0.056182861328125,-0.7449493408203125,-0.67718505859375,199929.0380039167,-0.0559618026018142,-0.0198059286922216,-0.0056794574484229,199929.0590549167,137.4239807128906,-646.0011596679688,-688.545166015625,199929.0491809167,1.574982140898807,0.0532101348710817,0.8321241820845042,-0.0431622490286827,0.0411902070045471,0.009701557457447,-0.0062230676412582,-0.0014204978942871,0.0091307163238525,2,0.2678441537570302,0.3034510732551347,0.6554911703283606,0.6375802143174595,0.0358098447322845,-0.7393632531166077,-0.6723539233207703,114.2677612304688,-554.1575317382812,-417.8828430175781,-1,2,0,0,0,0,0,0,0,0,0,0,0,0,0,199925.703908,0,5.622856,100.441,1698758231.829108,0,1685690884,0,0,1,1698758231.801021,1,0.75,0
1698758340.442335,3241,1698758339.973,62.52394336348063,6.264191865397755,-7.196609,0.1569058,0.4913686,-1.0,-1.0,3.365514243612548,4.743189950743054,-9999,1698758340.437676,115.0111846923828,-552.7564697265625,-421.8973693847656,178.4649810791016,175.8119964599609,14.2873067855835,199930.07253525,0.028839111328125,-0.7197418212890625,-0.7065277099609375,199930.04397125,-0.0654314681887626,0.0314242355525493,0.0096214683726429,199930.05422125,138.3082733154297,-645.1656494140625,-692.845703125,199930.06260025,1.577960035771165,0.050203583957326,0.7776340457276674,-0.0519704781472683,-0.0125612113624811,-0.0093561578541994,0.0029069334268569,-0.0158271193504333,0.0013811588287353,2,0.2505321571625437,0.285297644095739,0.6631635992985749,0.6450218647798984,0.0357588231563568,-0.7015954852104187,-0.7116777896881104,115.0526733398438,-552.7705688476562,-421.5859680175781,-1,2,0,0,0,0,0,0,0,0,0,0,0,0,0,199926.70448,0,5.802536,100.4388,1698758231.829108,0,1685690884,0,0,1,1698758231.801021,1,0.75,0
1698758341.450778,3271,1698758340.972994,62.52394546547941,6.264180464796499,-7.789407,0.1827755,1.180402,217.3400212349368,180.0,3.366681253752731,4.74236168679897,-9999,1698758341.431154,115.9320373535156,-551.97412109375,-426.0844421386719,178.4571380615234,175.8041534423828,14.28607368469238,199931.078501875,0.0446319580078125,-0.6927032470703125,-0.7555999755859375,199931.049936875,-0.0605818554759025,-0.0321904271841049,-0.0459296740591526,199931.079654875,139.211669921875,-644.3284912109375,-697.4580688476562,199931.076017875,1.581710196213149,0.0463291569901218,0.7243548795528415,-0.0542737804353237,-0.0333073176443576,0.0296703353524208,-0.03769076988101,-0.0475832819938659,0.0192875266075134,2,0.2336989592180975,0.2670636810697583,0.6704264044381207,0.6516061229601495,0.0346847549080848,-0.6626524329185486,-0.7481235861778259,116.2546539306641,-551.8084716796875,-425.9776306152344,-1,2,0,0,0,0,0,0,0,0,0,0,0,0,0,199927.705058,0,6.005989,100.4364,1698758231.829108,0,1685690884,0,0,1,1698758231.801021,1,0.75,0
1698758342.454154,3301,1698758341.972989,62.52395151783185,6.264196634917981,-8.262209,0.1702334,1.160832,324.0822137316055,180.0,3.369193116744186,4.740577472721275,-9999,1698758342.444606,116.4709167480469,-550.7310791015625,-430.6676330566406,178.3815765380859,175.7285919189453,14.28486824035645,199932.0844675,0.040283203125,-0.6402740478515625,-0.7827301025390625,199932.0559025,-0.0558044090867042,0.018745457753539,-0.010602043941617,199932.0749585,139.7222595214844,-643.140625,-701.905517578125,199932.0298225,1.585394991313874,0.041007599083649,0.6730979624017518,-0.0547263920307159,0.0037605017423629,0.0246488563716411,0.011158250272274,-0.0169391632080078,-0.0016458630561828,2,0.2179660754654042,0.2487416052453418,0.6769031636825636,0.6575869515857711,0.0320546142756938,-0.623411238193512,-0.7812368273735046,116.5087280273438,-550.6922607421875,-430.5229187011719,-1,2,0,0,0,0,0,0,0,0,0,0,0,0,0,199928.705631,0,6.172455,100.4344,1698758231.829108,0,1685690884,0,0,1,1698758231.801021,1,0.75,0
1698758343.46258,3331,1698758342.972982,62.52395641131174,6.264206079559842,-8.507845,0.1657361,0.309317,-1.0,-1.0,3.369613930300964,4.740278366669042,-9999,1698758343.457958,117.4565887451172,-549.1708374023438,-434.4641418457031,178.3896331787109,175.7366485595703,14.28155899047852,199933.090433375,0.034637451171875,-0.5982666015625,-0.818023681640625,199933.061869375,-0.0637068077921867,0.0174804572016,0.0239663198590278,199933.070271375,140.5832672119141,-641.3817749023438,-705.5614624023438,199933.043240375,1.587747127694652,0.0382937585370897,0.6177428725779888,-0.0463718995451927,-0.0016574943438172,-0.0138173336163163,-0.0162859223783016,-0.020412802696228,0.0127561688423156,2,0.2000741301701473,0.2295108155846985,0.6832854868204351,0.6636386115901748,0.0312089789658784,-0.5791966319084167,-0.8145902752876282,117.3223876953125,-549.1441650390625,-434.2649841308594,-1,2,0,0,0,0,0,0,0,0,0,0,0,0,0,199929.706204,0,6.330994,100.4325,1698758231.829108,0,1685690884,0,0,1,1698758231.801021,1,0.75,0
1698758344.47154,3361,1698758343.972977,62.5239520321908,6.264195077845522,-7.622306,0.2689162,0.8106215,-1.0,-1.0,3.368118515255126,4.741341023379825,-9999,1698758344.451548,118.2770080566406,-547.5748901367188,-439.2716369628906,178.4042510986328,175.7512664794922,14.28071975708008,199934.096397125,0.015594482421875,-0.5592803955078125,-0.848876953125,199934.067833125,-0.0545375421643257,0.0220946501940488,0.0098864529281854,199934.095752125,141.32861328125,-639.8363647460938,-710.4144287109375,199934.056655125,1.589500950949267,0.0351357615625178,0.5593638994560871,-0.064094103872776,0.0097911236807703,0.0083516873419284,0.0141553375869989,-0.0187761187553405,-0.0081548690795898,2,0.1812827235184643,0.2088102402082778,0.6892481888441078,0.669680448834716,0.0297746937721967,-0.5306471586227417,-0.8470697402954102,118.0394897460938,-547.466064453125,-439.0079650878906,-1,2,0,0,0,0,0,0,0,0,0,0,0,0,0,199930.70678,0,6.484253,100.4307,1698758231.829108,0,1685690884,0,0,1,1698758231.801021,1,0.75,0
1698758345.474823,3391,1698758344.972972,62.52395234699433,6.2641899316799,-8.183299,0.1389756,0.830838,-1.0,-1.0,3.373920092830613,4.737214396666326,-9999,1698758345.464891,118.9502716064453,-545.2872314453125,-443.3279724121094,178.4526519775391,175.7996673583984,14.27852916717529,199935.1023586667,0.0172119140625,-0.4994049072265625,-0.879486083984375,199935.0737936667,-0.0631922855973243,-0.0082890884950757,0.0003930825623683,199935.0910156667,142.2394561767578,-637.7333984375,-714.4571533203125,199935.0700686667,1.590901931404659,0.0308897545059809,0.5001065438573296,-0.0706728249788284,-0.0091247493401169,-0.003700774628669,-0.0076322443783283,-0.0321387350559234,-0.0024799704551696,2,0.1625020989732805,0.1871807491522936,0.6945603829790233,0.6753831878664835,0.0271024219691753,-0.4795190393924713,-0.877112865447998,119.0505523681641,-545.1599731445312,-443.3143005371094,-1,2,0,0,0,0,0,0,0,0,0,0,0,0,0,199931.707356,0,6.632217,100.4289,1698758231.829108,0,1685690884,0,0,1,1698758231.801021,1,0.75,0
1698758346.478083,3421,1698758345.972966,62.5239516268302,6.264182910466897,-8.233459,0.1665108,0.8823092,-1.0,-1.0,3.379952638465385,4.732912126219937,-9999,1698758346.458382,119.9155883789062,-543.6547241210938,-448.0314636230469,178.5233459472656,175.870361328125,14.27556800842285,199936.108318875,0.0456390380859375,-0.447235107421875,-0.9104156494140624,199936.079754875,-0.0588076561689376,0.0196839552372694,-0.0067503144964575,199936.086212875,143.2565155029297,-636.0652465820312,-719.3272705078125,199936.083480875,1.591080496033341,0.0284454222687214,0.4417357570379043,-0.0599983409047126,0.0135076818987727,-0.0035049791913479,-0.0014805719256401,-0.0160943269729614,-0.001399278640747,2,0.1434045695950354,0.166170063087501,0.69900147239111,0.6806024895805213,0.0257115066051483,-0.4275092482566833,-0.9036452770233154,119.81494140625,-543.5718994140625,-447.6982727050781,-1,2,0,0,0,0,0,0,0,0,0,0,0,0,0,199932.707932,0,6.790756,100.427,1698758231.829108,0,1685690884,0,0,1,1698758231.801021,1,0.75,0
1698758347.486458,3451,1698758346.97296,62.52395793538319,6.264196004246465,-9.002668,0.1292877,0.8574905,-1.0,-1.0,3.374824544373867,4.736570101611562,-9999,1698758347.471932,121.057373046875,-540.604736328125,-452.1532287597656,178.6029357910156,175.949951171875,14.27495765686035,199937.1142785,0.02264404296875,-0.3914947509765625,-0.9325714111328124,199937.0857145,-0.0620258189737796,0.004431233741343,0.0131656033918261,199937.1115575,144.6403198242188,-633.1353759765625,-723.1258544921875,199937.0968915,1.590678947938388,0.0279142867336581,0.3825047510684124,-0.057289969176054,-0.0025265272706747,0.0093806190416216,-0.0068354345858097,-0.0305022299289703,-0.0077788829803466,2,0.1232723380765057,0.145321375149161,0.7028699769907241,0.6853172277127124,0.0258936323225498,-0.3732453882694244,-0.9273712635040284,120.9486999511719,-540.6116943359375,-452.2821960449219,-1,2,0,0,0,0,0,0,0,0,0,0,0,0,0,199933.708508,0,6.975723,100.4248,1698758231.829108,0,1685690884,0,0,1,1698758231.801021,1,0.75,0
